SampleID,AccX_ms2,AccY_ms2,AccZ_ms2,GyroX_dps,GyroY_dps,GyroZ_dps,MagX,MagY,MagZ
0,8.59,0.67,2.27,-17.9,-15.9,12.3,-457,1026,-793
1,9.64,0.69,1.79,-8.1,1.0,-0.6,-470,1006,-803
2,10.12,0.85,1.75,-0.9,23.3,-11.3,-472,1011,-801
3,10.84,1.39,2.70,6.0,37.3,-15.7,-465,1026,-786
4,11.56,1.81,3.59,16.2,39.5,-18.1,-450,1041,-771
5,11.59,1.92,3.49,25.1,40.4,-19.8,-426,1053,-758
6,11.50,1.96,2.94,32.1,46.9,-21.3,-428,1073,-753
7,11.64,2.24,2.80,41.7,53.4,-22.5,-398,1091,-731
8,11.51,2.54,3.15,57.1,52.4,-21.9,-378,1113,-702
9,11.30,2.43,3.07,76.2,46.1,-22.0,-346,1136,-682
10,11.14,2.00,2.35,93.0,37.3,-24.4,-320,1146,-677
11,11.18,1.54,1.77,103.8,32.6,-30.7,-292,1171,-655
12,11.44,1.23,1.72,107.4,29.8,-36.4,-247,1168,-657
13,11.89,1.26,2.23,105.3,28.9,-29.7,-211,1171,-643
14,12.08,1.36,2.53,98.3,24.1,-18.0,-156,1186,-631
15,11.72,1.43,2.53,90.2,20.6,-7.9,-133,1183,-618
16,11.08,1.35,2.69,83.0,21.3,-1.4,-102,1191,-611
17,10.40,0.80,2.46,78.5,28.5,1.0,-82,1191,-598
18,8.89,0.02,1.99,74.8,36.1,2.7,-60,1191,-608
19,8.63,-1.10,0.28,83.1,56.3,10.8,-20,1206,-583
20,8.19,-1.65,0.46,108.4,62.9,20.7,0,1216,-542
21,7.22,-1.78,1.26,135.4,61.3,25.9,22,1226,-542
22,6.65,-1.99,1.79,145.4,62.2,28.8,57,1226,-525
23,6.39,-2.00,2.40,137.2,62.4,32.1,87,1228,-512
24,6.26,-1.87,2.59,116.2,57.8,29.9,105,1208,-502
25,6.29,-1.68,2.87,87.8,44.5,22.5,133,1226,-471
26,6.44,-1.79,3.24,55.5,23.8,18.5,163,1211,-473
27,6.47,-2.11,3.56,20.1,3.6,14.5,171,1233,-473
28,6.97,-2.04,4.14,-12.0,-11.0,6.3,148,1213,-476
29,7.49,-1.88,4.41,-38.5,-14.3,-12.5,161,1236,-471
30,8.41,-1.80,4.23,-58.6,-4.2,-35.7,146,1226,-461
31,9.59,-2.06,3.93,-72.5,19.0,-46.2,138,1236,-466
32,11.28,-2.62,4.46,-72.7,53.8,-32.5,138,1253,-433
33,11.33,-2.83,5.13,-55.5,70.4,-13.6,113,1276,-418
34,10.52,-2.52,5.18,-34.2,61.6,-10.0,102,1297,-390
35,11.02,-1.26,6.19,-23.8,52.0,-7.8,80,1302,-370
36,11.66,0.59,7.19,-41.7,50.4,-9.6,82,1327,-332
37,11.57,0.98,7.28,-70.4,42.3,-24.7,70,1357,-318
38,11.63,1.02,7.24,-91.6,31.2,-42.0,47,1360,-301
39,12.02,1.21,7.36,-112.0,-47.4,-47.4,-12,1382,-278
40,11.58,1.34,6.83,-123.6,-75.5,-32.3,-35,1400,-291
41,11.03,1.58,6.72,-133.0,-93.1,-17.5,-82,1355,-332
42,10.29,1.65,6.34,-134.7,-92.1,-8.2,-126,1367,-370
43,9.62,1.50,5.73,-130.7,-73.8,-7.1,-173,1347,-400
44,8.82,1.07,5.09,-126.0,-47.4,-14.4,-206,1340,-421
45,7.83,0.75,4.70,-122.3,-28.4,-23.8,-257,1335,-458
46,6.81,0.38,4.24,-120.9,-21.2,-25.2,-302,1310,-471
47,5.93,0.21,3.93,-122.4,-21.9,-18.4,-331,1305,-471
48,5.48,0.17,3.67,-123.1,-26.2,-6.3,-378,1302,-487
49,5.52,0.32,3.42,-120.3,-30.1,0.5,-418,1285,-512
50,5.86,0.59,3.35,-112.5,-32.8,-0.9,-452,1268,-520
51,6.27,0.88,3.29,-102.5,-36.0,-6.8,-482,1253,-532
52,6.66,1.14,3.20,-94.3,-35.6,-9.3,-515,1226,-547
53,7.17,1.31,3.14,-86.6,-29.3,-10.3,-541,1211,-573
54,7.49,1.50,3.00,-77.1,-16.5,-10.4,-578,1206,-591
55,7.82,1.62,2.96,-63.5,2.2,-12.2,-586,1188,-616
56,8.06,1.91,3.33,-42.7,21.3,-16.5,-598,1181,-603
57,8.54,2.43,3.90,-13.9,29.9,-20.7,-601,1198,-593
58,8.93,2.67,4.09,16.9,26.5,-21.2,-591,1198,-583
59,9.23,2.69,3.96,40.9,23.7,-17.8,-576,1203,-576
60,9.55,2.72,3.65,57.5,27.9,-15.4,-553,1231,-565
61,10.05,2.96,3.47,70.8,32.2,-13.4,-525,1231,-562
62,11.17,3.47,4.09,88.9,21.4,-8.7,-490,1246,-547
63,11.64,3.43,4.83,110.2,2.0,-6.3,-457,1276,-530
64,11.54,2.94,5.00,126.3,-1.6,-6.9,-426,1273,-542
65,11.64,2.48,4.76,136.1,10.9,-11.1,-381,1292,-530
66,12.05,2.11,4.38,140.7,22.1,-18.1,-312,1295,-525
67,12.10,1.81,4.19,139.0,26.6,-18.8,-270,1287,-520
68,12.21,1.74,4.59,133.1,19.8,-6.8,-198,1297,-495
69,11.85,1.53,4.49,123.9,6.1,11.5,-161,1295,-490
70,11.37,1.24,4.22,116.6,-1.5,31.0,-131,1295,-505
71,10.06,0.86,3.73,113.6,-4.3,47.6,-108,1285,-507
72,8.74,0.29,3.04,113.6,1.3,62.0,-82,1292,-517
73,8.64,-0.46,2.45,120.6,24.9,74.8,-70,1285,-517
74,7.44,-0.46,2.76,135.6,32.5,73.1,-55,1278,-502
75,5.83,-0.55,2.67,147.6,24.5,55.6,-30,1281,-507
76,5.61,-0.78,2.78,144.5,22.8,42.9,-7,1268,-515
77,5.71,-0.87,3.19,126.6,20.7,39.9,25,1263,-512
78,6.07,-1.04,3.44,102.1,21.4,36.8,40,1263,-505
79,5.99,-0.90,3.59,79.2,18.5,30.3,65,1261,-492
80,5.81,-1.23,3.70,59.6,9.5,17.7,82,1238,-510
81,6.12,-1.59,4.05,37.7,-2.7,1.7,87,1241,-507
82,6.51,-1.77,4.30,11.6,-11.8,-11.0,123,1233,-512
83,6.85,-1.81,4.33,-17.1,-11.3,-21.5,113,1231,-512
84,7.59,-1.54,4.50,-38.5,-4.8,-32.5,116,1238,-500
85,9.01,-1.65,4.54,-45.6,5.4,-39.9,113,1236,-497
86,10.18,-2.05,4.47,-40.9,16.4,-39.2,118,1238,-510
87,11.00,-2.54,4.45,-27.0,32.7,-29.3,111,1261,-500
88,11.64,-0.91,5.38,-3.7,28.9,-41.1,126,1276,-436
89,11.35,0.00,5.36,-14.5,19.5,-44.7,141,1285,-418
90,13.94,0.48,4.21,-30.3,34.5,-24.9,143,1285,-408
91,16.29,0.46,1.84,-15.8,34.1,-21.6,153,1290,-395
92,13.29,1.28,7.14,1.3,-24.2,-51.8,148,1305,-382
93,12.95,0.97,7.53,-29.3,-52.9,-54.6,168,1281,-387
94,13.59,1.63,4.99,-81.3,-71.6,-45.6,166,1285,-395
95,13.40,1.59,4.98,-134.1,-88.7,-35.8,146,1271,-436
96,11.85,1.59,5.67,-179.6,-92.6,-22.3,111,1276,-451
97,10.43,1.24,5.78,-216.6,-86.0,-12.9,40,1285,-481
98,9.20,0.65,5.43,-239.5,-78.2,-10.2,-20,1271,-522
99,8.01,0.27,4.93,-249.0,-74.4,-10.8,-105,1276,-532
100,6.89,0.17,4.18,-248.4,-80.8,-12.4,-176,1253,-576
101,6.24,0.12,3.59,-243.3,-90.0,-7.1,-257,1228,-611
102,5.67,0.08,2.84,-235.0,-93.1,1.5,-326,1201,-650
103,5.53,0.17,2.60,-221.7,-92.3,11.2,-398,1178,-667
104,5.60,0.20,2.64,-201.0,-84.8,19.2,-472,1118,-731
105,5.98,0.45,2.79,-172.4,-79.4,18.5,-520,1076,-778
106,6.57,0.82,3.12,-138.7,-74.9,11.0,-558,1038,-791
107,7.13,0.96,3.26,-106.7,-60.7,2.3,-598,986,-822
108,7.64,1.14,3.30,-80.5,-29.4,1.7,-631,963,-845
109,8.11,1.43,3.82,-55.2,8.5,3.3,-643,960,-842
110,8.46,1.75,4.07,-24.5,29.6,0.2,-657,947,-857
111,8.58,1.90,4.05,8.2,34.9,-3.7,-655,966,-842
112,9.18,2.37,4.22,37.8,27.0,-3.3,-641,963,-822
113,9.72,2.59,4.10,58.4,17.5,4.5,-608,988,-817
114,10.52,2.77,4.03,69.4,16.2,13.7,-616,1008,-812
115,11.20,3.00,3.68,75.8,23.1,15.9,-613,1018,-796
116,11.59,3.17,3.14,81.4,33.7,11.2,-603,1026,-781
117,12.27,3.60,3.36,90.0,37.0,10.0,-588,1056,-761
118,12.42,3.69,3.65,100.9,31.3,14.8,-571,1078,-758
119,12.14,3.30,3.39,110.6,31.5,15.3,-546,1088,-736
120,11.87,2.90,2.71,116.7,42.9,7.2,-522,1118,-712
121,11.60,2.41,1.92,120.9,54.4,-1.6,-485,1136,-697
122,11.41,2.15,1.65,123.8,58.0,-3.1,-445,1158,-675
123,11.47,2.12,1.90,127.3,49.5,3.6,-413,1188,-650
124,11.17,2.10,2.09,130.1,33.4,12.5,-373,1198,-638
125,11.03,2.14,2.09,132.7,18.0,21.9,-346,1226,-623
126,10.57,1.75,1.38,137.3,16.1,26.8,-317,1226,-618
127,9.99,0.82,0.39,145.1,36.6,27.7,-272,1243,-606
128,10.01,0.10,0.02,161.5,63.4,24.5,-230,1251,-586
129,8.85,-0.22,1.58,183.6,76.8,29.5,-186,1276,-555
130,6.96,-0.57,2.21,195.0,73.0,35.8,-136,1297,-517
131,5.93,-0.92,2.18,188.6,58.5,39.7,-87,1285,-510
132,5.42,-1.15,2.23,167.1,37.1,39.4,-55,1287,-500
133,5.54,-1.10,2.36,138.6,12.0,42.2,0,1278,-490
134,5.75,-1.35,2.66,107.6,-7.1,47.5,25,1276,-497
135,6.20,-1.17,3.32,81.3,-23.9,47.5,47,1268,-532
136,6.24,-1.28,3.62,62.6,-37.8,33.4,55,1253,-522
137,6.89,-1.73,4.30,25.2,-38.5,-11.2,77,1203,-555
138,7.39,-1.88,4.40,2.4,-26.7,-16.1,77,1201,-588
139,8.12,-1.97,4.57,-16.4,-18.3,-19.0,85,1196,-596
140,8.77,-1.96,4.64,-28.3,-12.4,-25.6,90,1191,-591
141,9.81,-1.93,4.85,-34.0,-12.7,-38.4,90,1183,-603
142,10.50,-1.88,4.70,-39.9,-11.5,-47.2,100,1183,-593
143,11.00,-1.37,4.41,-47.6,1.3,-43.7,105,1191,-598
144,11.73,-0.72,4.61,-46.1,15.8,-35.4,113,1186,-583
145,12.13,-0.60,4.78,-35.4,22.8,-36.4,118,1208,-542
146,12.86,-0.53,5.02,-23.4,21.7,-43.7,116,1211,-535
147,13.61,-0.50,5.13,-17.3,12.7,-49.8,111,1223,-532
148,14.60,-0.43,5.47,-23.7,-5.0,-47.7,133,1236,-527
149,15.11,-0.31,5.31,-45.5,-27.3,-32.4,141,1216,-512
150,14.81,0.09,4.71,-78.4,-36.5,-7.4,123,1221,-532
151,13.73,2.77,-5.80,-83.2,-35.4,1.4,97,1226,-555
152,13.80,3.99,0.62,-95.6,-77.6,-25.9,72,1211,-568
153,10.12,2.01,6.00,-112.4,-84.1,29.8,47,1188,-601
154,9.43,0.97,4.59,-140.8,-66.3,71.9,-7,1188,-611
155,9.22,0.55,3.36,-156.6,-53.1,67.4,-72,1206,-650
156,8.46,0.16,2.82,-161.1,-41.4,41.3,-138,1171,-667
157,7.59,0.10,2.41,-163.2,-28.2,19.0,-201,1173,-692
158,6.73,0.22,2.30,-167.9,-14.7,16.8,-255,1163,-700
159,6.07,0.29,2.36,-169.6,-3.8,27.6,-312,1161,-697
160,5.81,0.25,2.57,-160.7,1.1,37.1,-376,1166,-707
161,5.82,0.52,2.68,-140.5,-4.3,34.9,-442,1151,-715
162,6.03,0.72,2.72,-114.1,-16.2,25.8,-485,1133,-720
163,6.55,1.14,2.84,-89.8,-26.5,21.1,-510,1116,-720
164,7.15,1.46,2.71,-70.3,-30.7,23.4,-548,1093,-733
165,8.04,1.93,2.53,-52.9,-30.9,27.0,-561,1091,-753
166,8.86,2.20,2.29,-33.4,-29.8,31.8,-598,1056,-771
167,9.59,2.57,2.46,-11.2,-21.7,30.0,-621,1051,-761
168,10.12,2.80,2.78,15.8,-14.0,17.6,-623,1033,-768
169,10.63,2.91,3.00,42.6,-4.4,1.6,-623,1033,-766
170,11.06,2.91,2.61,64.2,11.9,-11.9,-613,1043,-766
171,11.30,2.84,2.03,80.2,32.3,-17.8,-581,1073,-766
172,11.50,3.00,1.95,97.4,44.7,-17.3,-551,1093,-746
173,11.97,3.28,2.83,119.6,41.9,-18.9,-522,1111,-736
174,11.89,3.14,3.45,141.8,31.7,-23.0,-462,1136,-712
175,11.61,2.59,3.18,153.1,28.9,-30.4,-411,1161,-690
176,11.47,2.13,2.39,151.2,30.6,-39.8,-366,1181,-680
177,11.54,1.76,2.00,141.3,27.0,-42.2,-302,1181,-675
178,11.54,1.60,2.07,127.2,17.9,-34.0,-255,1196,-667
179,11.82,1.61,2.59,111.7,5.8,-16.9,-198,1196,-655
180,11.64,1.66,2.83,99.6,-5.4,-0.5,-168,1191,-662
181,10.95,1.36,2.38,93.2,-7.7,3.3,-126,1188,-677
182,9.72,0.87,2.51,90.1,3.7,-1.2,-113,1178,-667
183,8.49,0.37,2.17,91.6,20.1,-5.5,-87,1168,-660
184,7.41,-0.40,1.77,104.2,36.8,1.3,-52,1171,-646
185,6.78,-1.03,1.82,124.8,45.7,12.6,-15,1173,-646
186,6.35,-1.93,1.95,159.1,43.2,16.5,42,1188,-623
187,6.75,-2.05,2.17,158.3,34.6,18.0,97,1183,-608
188,6.83,-1.99,2.44,146.2,17.4,14.8,121,1173,-613
189,6.87,-2.21,2.79,120.5,2.7,14.9,153,1148,-608
190,7.30,-2.62,2.82,83.3,-1.5,29.6,198,1141,-618
191,7.70,-2.96,2.72,46.5,-1.0,41.5,181,1131,-618
192,8.09,-2.91,3.01,20.7,1.3,34.0,176,1123,-646
193,8.35,-2.60,3.52,7.0,-0.8,15.3,171,1113,-643
194,8.96,-2.23,3.83,-0.6,-6.6,-2.5,168,1106,-660
195,9.71,-1.88,3.92,-9.6,-10.7,-10.8,161,1121,-643
196,10.42,-1.73,3.88,-22.4,-8.6,-9.5,181,1111,-643
197,10.86,-1.74,3.89,-36.7,-0.6,-9.9,168,1123,-646
198,11.39,-1.24,3.78,-48.2,10.7,-12.5,168,1121,-655
199,12.29,-0.53,4.13,-50.2,12.2,-15.1,168,1131,-633
200,12.99,-0.51,4.46,-47.3,10.0,-19.6,146,1136,-631
201,13.80,-0.62,4.96,-44.6,-0.2,-28.2,143,1151,-621
202,14.44,-0.80,5.32,-49.9,-11.5,-31.8,153,1151,-611
203,15.14,-0.64,5.47,-67.9,-21.9,-23.6,141,1143,-628
204,15.17,-0.34,4.90,-98.0,-25.0,-5.2,126,1156,-628
205,14.36,-0.17,3.54,-129.4,-20.0,20.9,95,1158,-641
206,13.22,0.39,1.85,-150.8,-10.5,37.8,57,1163,-633
207,11.81,1.28,1.88,-159.0,-26.0,36.6,0,1168,-650
208,10.50,1.36,3.88,-155.5,-44.8,39.3,-67,1181,-662
209,9.09,0.79,3.21,-152.6,-50.6,38.5,-118,1168,-675
210,8.55,0.41,2.92,-150.8,-45.8,37.5,-206,1168,-710
211,7.81,0.17,2.40,-148.0,-34.8,37.6,-270,1143,-705
212,7.04,-0.07,2.03,-146.7,-21.2,37.5,-310,1143,-722
213,6.62,0.01,2.26,-143.9,-6.6,39.3,-368,1128,-741
214,6.37,0.23,2.46,-136.3,4.0,37.9,-403,1128,-751
215,6.25,0.52,2.38,-124.6,12.8,33.8,-465,1133,-736
216,6.48,0.83,2.34,-109.7,13.8,27.2,-507,1128,-731
217,6.74,0.99,1.99,-94.0,5.7,22.9,-546,1101,-731
218,7.15,1.14,1.67,-78.7,-5.0,23.7,-573,1088,-743
219,7.37,1.26,1.59,-63.3,-8.8,27.0,-616,1086,-748
220,8.00,1.69,2.12,-43.7,-10.0,29.7,-641,1058,-746
221,8.89,2.13,2.52,-19.2,-14.4,25.4,-657,1066,-751
222,9.64,2.33,2.39,4.8,-14.9,12.0,-677,1063,-751
223,10.06,2.42,2.25,25.0,-3.3,-1.5,-675,1048,-766
224,10.59,2.50,2.25,42.3,9.5,-8.0,-662,1063,-758
225,10.85,2.46,2.12,57.8,16.6,-11.1,-647,1076,-746
226,11.25,2.36,1.85,72.4,20.1,-16.8,-623,1073,-746
227,11.42,2.33,1.64,86.5,21.8,-23.8,-596,1098,-712
228,12.03,2.76,2.49,102.3,18.0,-31.3,-568,1123,-733
229,12.16,2.82,3.42,117.6,14.2,-34.0,-515,1136,-725
230,12.02,2.34,3.68,126.1,14.1,-36.0,-472,1148,-705
231,12.13,1.96,3.43,128.2,9.6,-34.6,-408,1158,-700
232,12.39,1.82,3.22,126.5,-0.7,-31.0,-366,1176,-705
233,12.76,1.76,3.15,123.0,-13.6,-24.1,-323,1176,-702
234,12.60,1.54,2.82,118.1,-21.7,-16.4,-262,1166,-702
235,10.75,0.66,1.85,111.2,-7.5,-13.5,-183,1138,-733
236,9.45,0.17,1.72,111.8,7.2,-16.4,-161,1151,-725
237,8.20,-0.17,1.88,116.1,18.7,-18.0,-116,1123,-725
238,7.20,-0.54,1.77,122.1,22.5,-18.6,-87,1138,-707
239,6.56,-0.88,1.42,128.2,25.5,-14.8,-37,1143,-707
240,6.32,-1.28,1.31,133.8,28.9,-10.8,7,1131,-697
241,6.26,-1.32,1.59,136.2,28.3,-10.7,40,1126,-697
242,6.39,-1.26,2.15,131.9,23.1,-14.4,92,1121,-680
243,6.62,-1.46,2.43,118.7,16.8,-14.4,118,1123,-682
244,6.96,-1.83,2.82,98.8,10.7,-7.4,153,1106,-670
245,7.25,-2.14,3.20,77.9,3.6,0.1,186,1093,-670
246,7.64,-2.23,3.42,61.2,-3.7,-1.9,196,1083,-682
247,8.07,-2.43,3.17,47.7,-3.9,-11.8,213,1073,-687
248,8.44,-2.40,2.96,36.7,5.0,-26.4,232,1063,-682
249,9.13,-2.48,3.24,27.9,13.6,-41.8,252,1056,-685
250,9.76,-2.62,3.54,16.5,18.4,-50.5,285,1051,-672
251,10.50,-2.63,3.74,0.8,20.6,-50.7,292,1053,-655
252,10.96,-2.87,3.40,-18.8,25.0,-47.3,315,1053,-631
253,11.45,-2.55,3.20,-35.1,31.0,-35.7,323,1061,-623
254,12.04,-2.04,3.76,-35.8,24.1,-21.7,338,1081,-606
255,12.49,-1.76,4.23,-25.1,9.3,-20.1,328,1096,-593
256,13.01,-1.61,4.53,-14.7,-2.7,-25.4,341,1093,-578
257,13.72,-1.58,4.85,-16.6,-8.4,-25.4,328,1108,-568
258,15.00,-1.12,5.36,-31.3,-19.4,-9.9,323,1106,-583
259,15.53,-0.78,5.08,-56.2,-31.3,17.1,331,1113,-588
260,15.06,-0.56,4.38,-87.2,-28.7,40.8,302,1101,-603
261,14.20,0.07,3.95,-113.6,-17.9,59.7,257,1121,-616
262,13.13,0.75,4.26,-127.0,-14.4,74.3,211,1133,-618
263,11.67,0.97,4.22,-128.7,-23.3,81.0,131,1151,-641
264,9.87,0.59,3.36,-128.3,-29.5,83.3,80,1166,-655
265,8.92,0.72,2.81,-130.1,-32.2,82.6,0,1163,-685
266,7.98,0.67,2.39,-133.9,-30.4,79.8,-60,1173,-695
267,7.18,0.69,2.09,-139.4,-25.5,79.5,-143,1156,-702
268,6.70,0.76,2.07,-142.7,-20.3,81.2,-206,1168,-720
269,6.79,0.97,2.19,-140.9,-23.7,78.8,-287,1141,-738
270,6.67,1.08,1.93,-135.9,-27.2,71.8,-361,1138,-738
271,6.74,1.34,1.72,-129.3,-24.2,67.2,-411,1128,-761
272,6.62,1.35,1.64,-118.8,-13.0,65.4,-482,1106,-756
273,6.72,1.48,1.72,-101.9,-3.6,56.4,-541,1098,-763
274,6.93,1.65,1.83,-77.3,-2.9,40.7,-568,1076,-773
275,7.36,1.97,1.94,-49.9,-6.3,24.6,-621,1066,-771
276,7.98,2.34,2.03,-24.4,-9.1,13.2,-621,1053,-763
277,8.87,2.46,2.07,-3.0,-11.1,6.5,-636,1038,-781
278,9.89,2.48,2.00,14.4,-15.8,1.4,-636,1048,-796
279,10.41,2.09,1.74,25.6,-13.1,-9.6,-643,1028,-788
280,11.00,1.80,1.43,34.4,1.2,-23.0,-618,1043,-812
281,11.92,1.75,1.52,46.8,13.5,-37.8,-601,1043,-791
282,12.70,1.88,2.18,65.3,21.1,-52.3,-558,1076,-783
283,12.59,1.48,2.68,84.1,28.6,-63.6,-525,1073,-778
284,12.12,0.86,2.66,109.0,40.3,-72.2,-416,1133,-766
285,11.95,0.63,2.34,113.1,35.6,-67.8,-356,1136,-733
286,12.08,0.76,2.49,116.0,23.3,-57.9,-300,1156,-725
287,12.20,0.81,2.52,118.9,6.9,-49.8,-255,1176,-710
288,12.16,0.79,2.40,119.7,-4.0,-47.8,-183,1151,-727
289,11.41,0.53,2.09,114.6,-2.1,-51.3,-143,1158,-727
290,10.23,0.08,1.83,103.8,8.7,-54.9,-82,1141,-712
291,9.12,-0.31,1.82,92.7,20.8,-53.1,-35,1133,-700
292,8.14,-0.59,1.72,89.3,25.9,-48.4,-2,1133,-707
293,7.33,-1.01,1.84,92.9,20.4,-41.8,47,1138,-677
294,6.81,-1.25,1.71,94.5,9.0,-36.4,92,1143,-672
295,6.90,-1.70,1.37,91.3,-2.5,-31.9,133,1116,-672
296,7.44,-1.84,1.36,84.6,-11.2,-31.9,171,1106,-685
297,8.02,-1.91,1.57,75.9,-20.5,-29.8,206,1091,-687
298,8.51,-2.10,1.69,64.4,-25.8,-28.7,230,1048,-692
299,9.01,-2.42,1.88,47.5,-20.3,-36.9,270,1051,-695
300,9.07,-2.66,1.92,24.5,-1.9,-45.4,285,1036,-697
301,9.21,-2.80,2.02,0.8,10.4,-44.2,307,1023,-687
302,9.48,-2.80,2.10,-17.8,5.8,-37.5,317,1023,-665
303,9.96,-2.70,2.26,-30.1,-12.4,-28.1,323,1041,-655
304,10.65,-2.49,2.19,-37.9,-27.0,-16.9,328,1026,-662
305,11.14,-2.38,2.22,-46.2,-23.3,-7.1,320,1033,-675
306,11.68,-2.01,2.21,-51.8,-5.6,-0.2,320,1033,-670
307,12.79,-0.98,2.75,-44.7,8.4,6.1,305,1031,-660
308,13.46,-0.49,3.36,-28.6,10.6,3.4,295,1041,-670
309,13.71,-0.48,3.43,-17.6,9.1,-3.5,290,1068,-662
310,14.07,-0.55,3.62,-21.1,4.4,-0.3,285,1053,-662
311,14.83,-0.43,3.91,-38.5,-9.9,11.5,275,1066,-657
312,15.00,-0.16,3.71,-66.1,-29.9,30.9,270,1063,-677
313,14.53,0.27,3.30,-97.9,-40.9,53.3,222,1078,-677
314,14.10,0.87,3.46,-125.5,-45.1,74.1,176,1083,-695
315,13.48,1.50,3.87,-144.0,-47.0,90.6,111,1086,-727
316,12.38,1.63,3.87,-154.1,-41.9,99.2,25,1081,-751
317,11.00,1.44,3.55,-157.5,-32.5,100.2,-40,1103,-758
318,9.71,1.19,3.13,-155.3,-23.2,97.0,-146,1093,-796
319,8.71,0.99,2.79,-150.0,-17.2,91.5,-220,1078,-803
320,7.67,0.80,2.38,-144.1,-14.0,86.5,-305,1073,-812
321,6.93,0.74,2.16,-138.7,-14.7,85.7,-353,1068,-796
322,6.52,0.81,2.00,-132.5,-19.3,90.2,-401,1053,-812
323,6.41,0.97,1.87,-121.8,-25.7,92.4,-507,1031,-835
324,6.70,1.32,1.71,-107.1,-35.5,82.6,-561,1018,-830
325,7.13,1.85,1.60,-90.7,-42.7,67.6,-623,978,-837
326,7.63,2.35,1.51,-75.2,-35.5,59.1,-667,942,-865
327,8.39,2.74,1.45,-58.5,-19.7,55.6,-710,922,-862
328,8.78,2.68,1.09,-40.6,-3.1,44.4,-737,912,-852
329,9.02,2.72,0.89,-20.0,7.9,25.2,-745,905,-855
330,9.24,2.65,0.95,-0.5,13.5,8.0,-766,897,-860
331,9.17,2.49,0.91,16.0,18.7,-4.7,-771,905,-840
332,9.35,2.24,0.87,29.2,25.2,-20.5,-763,922,-840
333,10.67,1.97,0.66,54.0,7.3,-45.0,-697,957,-855
334,11.12,1.83,0.72,62.2,-3.2,-49.2,-690,952,-827
335,11.32,1.52,1.24,68.2,-3.8,-57.7,-638,963,-842
336,11.20,1.21,1.65,72.1,5.5,-66.4,-598,966,-835
337,11.39,1.12,1.76,78.5,16.5,-70.2,-558,996,-835
338,11.80,0.95,1.79,88.1,19.6,-72.3,-492,1016,-837
339,12.43,0.91,1.83,98.1,12.8,-72.1,-442,1033,-825
340,13.01,0.72,1.83,104.2,2.5,-71.2,-391,1038,-825
341,13.08,0.27,1.58,103.7,-1.9,-71.9,-328,1038,-832
342,12.21,-0.31,1.06,96.7,6.9,-75.6,-287,1043,-835
343,10.84,-0.88,0.61,86.9,27.4,-73.4,-208,1056,-815
344,9.67,-1.09,1.07,78.5,47.4,-62.6,-191,1051,-817
345,8.77,-1.42,1.58,76.5,51.3,-51.6,-128,1091,-788
346,8.28,-2.07,1.29,79.7,42.2,-40.6,-82,1103,-773
347,7.72,-2.88,0.86,83.9,30.7,-27.4,-65,1096,-761
348,7.63,-3.13,0.70,86.4,18.3,-19.0,-32,1091,-753
349,7.51,-3.00,0.65,84.0,6.4,-19.7,0,1091,-741
350,7.42,-3.07,0.51,72.6,2.1,-20.4,20,1086,-743
351,7.34,-3.22,0.80,55.9,4.4,-19.9,50,1078,-746
352,7.20,-3.35,1.16,38.8,7.0,-22.7,72,1078,-741
353,7.35,-3.32,1.65,22.8,5.6,-28.0,77,1073,-727
354,7.79,-3.49,1.95,6.8,1.7,-30.2,105,1056,-741
355,8.56,-3.38,2.17,-11.3,-3.9,-26.6,118,1063,-731
356,9.45,-3.14,2.43,-27.3,-11.7,-18.0,133,1081,-731
357,10.29,-2.83,2.58,-39.7,-14.7,-9.9,126,1053,-731
358,10.65,-2.50,2.55,-46.7,-4.9,-3.1,123,1068,-736
359,11.59,-1.55,3.11,-42.4,7.3,-0.0,97,1073,-733
360,12.38,-1.07,3.51,-29.8,13.8,-3.2,102,1076,-722
361,12.59,-0.99,3.17,-19.2,24.1,-7.0,100,1088,-705
362,12.92,-0.88,3.10,-14.6,31.2,-7.9,92,1096,-700
363,13.18,-0.90,3.26,-18.4,21.6,-7.1,92,1111,-695
364,13.26,-0.77,3.43,-33.1,1.7,0.6,85,1133,-682
365,13.15,-0.43,3.43,-55.2,-18.4,19.9,72,1123,-685
366,12.89,0.04,3.62,-77.9,-31.1,41.8,45,1113,-705
367,12.59,0.53,3.80,-96.3,-33.7,55.8,-7,1121,-710
368,11.98,0.88,3.98,-106.3,-28.5,59.1,-45,1108,-736
369,10.98,0.93,3.95,-108.7,-20.6,54.8,-95,1111,-738
370,9.75,0.68,3.58,-109.0,-15.0,47.5,-143,1103,-753
371,8.67,0.43,3.28,-110.9,-13.3,43.8,-181,1106,-758
372,7.71,0.09,2.95,-116.0,-16.4,42.9,-230,1108,-778
373,7.10,-0.07,2.72,-124.6,-21.1,43.9,-290,1093,-781
374,6.85,-0.06,2.20,-133.0,-26.3,46.5,-333,1098,-781
375,6.66,-0.10,1.67,-138.5,-24.9,45.8,-391,1068,-801
376,6.50,-0.08,1.70,-138.9,-18.4,44.4,-447,1061,-808
377,6.67,0.05,2.08,-130.9,-12.4,40.5,-495,1046,-817
378,6.53,0.18,2.14,-116.6,-8.6,33.5,-546,1016,-820
379,6.82,0.44,2.30,-99.5,-7.7,26.6,-573,1018,-822
380,7.24,0.84,2.15,-82.7,-8.7,20.1,-611,993,-830
381,7.92,1.20,1.78,-68.4,-9.1,11.4,-643,971,-835
382,9.18,2.02,1.06,-39.5,7.0,-16.1,-657,945,-857
383,9.50,2.19,0.69,-22.5,19.7,-30.1,-655,950,-850
384,8.88,1.95,0.40,-6.5,35.9,-35.2,-655,963,-837
385,8.59,1.98,1.01,6.6,51.2,-29.8,-631,983,-815
386,8.08,2.00,1.07,21.1,59.1,-18.3,-596,1003,-817
387,8.32,1.82,0.19,40.1,61.1,-10.9,-598,1033,-791
388,9.62,1.85,-0.15,63.6,50.5,-12.6,-591,1053,-776
389,11.86,3.00,1.90,93.1,30.2,-8.5,-561,1078,-743
390,14.06,3.84,4.36,123.6,14.9,-5.8,-541,1108,-741
391,14.66,3.50,3.58,140.5,28.2,-20.4,-495,1121,-746
392,15.59,3.60,3.53,148.8,39.8,-32.3,-455,1146,-727
393,15.56,3.13,3.69,149.8,30.9,-35.0,-388,1158,-707
394,14.77,2.40,3.65,141.8,11.6,-23.6,-315,1158,-675
395,13.44,1.62,3.30,128.2,2.3,-11.3,-277,1173,-692
396,11.77,0.83,2.88,115.9,3.8,-7.4,-245,1178,-687
397,10.07,0.01,2.57,109.1,11.6,-11.7,-208,1173,-682
398,8.68,-0.71,2.04,107.7,18.1,-18.2,-176,1171,-685
399,7.55,-1.33,1.69,110.9,20.0,-21.6,-141,1178,-675
400,7.12,-1.96,1.37,116.5,18.0,-24.2,-80,1178,-667
401,6.91,-2.43,1.23,117.7,15.2,-28.9,-35,1176,-650
402,6.88,-2.69,1.50,110.5,16.3,-35.0,0,1171,-667
403,6.81,-3.03,1.71,90.6,28.5,-45.4,47,1158,-650
404,6.83,-3.17,2.17,64.7,44.6,-48.3,72,1163,-631
405,6.87,-3.23,2.70,40.4,53.8,-45.6,118,1173,-603
406,7.03,-3.23,3.04,21.4,52.8,-43.6,136,1186,-581
407,7.68,-3.04,3.29,8.5,39.4,-39.1,166,1203,-565
408,8.57,-2.78,3.42,0.0,15.7,-33.1,181,1208,-547
409,9.58,-2.69,3.51,-10.0,-6.4,-26.5,188,1201,-537
410,10.29,-2.57,3.48,-25.5,-9.6,-14.9,191,1193,-545
411,11.70,-1.59,3.94,-35.0,-0.8,1.1,188,1193,-542
412,13.46,-0.70,5.34,-26.9,-5.7,5.5,181,1208,-545
413,14.49,-0.68,5.68,-18.0,-10.8,-8.4,171,1208,-547
414,15.16,-0.57,5.89,-22.2,-0.6,-20.3,163,1198,-547
415,16.05,-0.09,6.52,-36.8,1.2,-14.9,168,1196,-540
416,16.14,-0.04,6.18,-60.2,-12.9,3.2,158,1216,-530
417,15.33,0.09,5.64,-87.8,-29.5,25.7,131,1218,-525
418,13.98,0.42,5.34,-109.3,-47.9,46.3,97,1208,-562
419,12.45,0.75,5.14,-120.5,-71.1,61.0,27,1216,-581
420,11.35,1.02,4.76,-126.1,-83.3,68.0,-30,1196,-623
421,10.32,1.01,3.99,-133.1,-72.7,67.6,-82,1186,-655
422,9.23,0.76,3.18,-144.2,-48.6,62.5,-148,1183,-680
423,8.11,0.60,2.81,-156.1,-25.4,58.3,-217,1166,-700
424,7.08,0.46,2.62,-164.2,-13.3,53.9,-297,1156,-697
425,6.08,0.43,2.51,-167.1,-10.6,53.1,-338,1148,-707
426,5.80,0.56,2.48,-164.2,-16.8,55.6,-445,1131,-727
427,5.99,0.90,2.27,-155.9,-29.7,57.5,-502,1103,-738
428,6.09,1.19,1.70,-143.7,-40.3,56.4,-561,1091,-746
429,6.43,1.54,1.47,-129.3,-45.6,51.1,-616,1056,-771
430,7.30,2.10,1.65,-109.6,-50.7,47.3,-660,1038,-773
431,8.70,2.56,1.77,-59.8,-36.3,36.3,-727,950,-827
432,9.35,2.74,1.87,-34.4,-20.7,20.5,-758,920,-832
433,9.71,2.94,1.77,-8.9,-3.4,4.1,-776,912,-830
434,10.02,3.06,1.82,15.6,8.5,-2.2,-786,912,-827
435,10.04,3.07,1.47,38.5,20.5,2.1,-781,922,-822
436,10.10,2.77,0.81,59.9,33.1,3.2,-778,952,-822
437,10.57,2.43,0.64,81.0,40.9,-6.1,-750,968,-793
438,11.24,2.36,1.37,101.3,38.3,-16.2,-720,993,-778
439,11.88,2.55,2.88,119.2,31.6,-20.1,-700,1031,-771
440,11.96,2.21,3.54,130.6,27.4,-22.6,-647,1068,-758
441,11.87,1.71,3.39,131.8,29.0,-22.8,-603,1098,-738
442,12.00,1.40,2.92,128.0,28.5,-21.5,-568,1123,-725
443,12.18,1.25,2.92,126.0,18.5,-25.0,-517,1118,-717
444,12.50,1.23,3.19,128.3,-1.9,-34.6,-475,1136,-702
445,12.42,0.85,3.07,127.7,-17.7,-42.9,-428,1141,-712
446,11.59,0.22,2.68,118.4,-14.4,-47.4,-356,1156,-712
447,10.38,-0.29,2.30,104.2,5.6,-56.1,-323,1151,-707
448,8.98,-0.61,2.25,91.4,32.6,-61.0,-260,1166,-720
449,7.72,-0.87,2.22,87.5,51.1,-59.5,-213,1176,-685
450,7.04,-1.51,1.87,95.1,63.6,-53.3,-161,1188,-665
451,6.32,-2.10,1.58,110.7,66.6,-44.2,-113,1193,-646
452,6.61,-2.73,1.57,126.7,65.5,-30.5,-52,1203,-611
453,7.02,-2.91,1.89,139.8,50.1,-24.0,-5,1211,-588
454,6.75,-2.93,2.16,136.8,21.4,-29.5,37,1223,-568
455,7.02,-3.05,2.41,110.9,-1.4,-27.5,82,1201,-578
456,7.82,-3.12,3.03,73.6,-13.1,-18.1,136,1208,-565
457,8.48,-3.12,3.43,35.4,-18.9,-13.6,141,1176,-591
458,9.41,-3.05,3.68,1.4,-21.1,-17.3,176,1171,-591
459,10.11,-2.93,3.68,-28.0,-19.2,-22.0,181,1161,-601
460,10.71,-2.62,3.60,-49.4,-15.7,-22.3,161,1158,-611
461,11.23,-2.39,3.55,-61.5,-12.2,-20.3,158,1173,-596
462,11.30,-2.27,3.34,-64.3,-1.8,-12.7,143,1158,-608
463,11.39,-1.86,3.07,-59.1,13.6,-6.3,131,1186,-598
464,12.03,-0.99,3.64,-42.1,16.0,-5.9,128,1193,-583
465,12.71,-0.67,4.23,-23.8,-0.4,-16.3,108,1186,-581
466,13.11,-0.59,4.40,-23.0,-19.1,-25.5,111,1188,-576
467,13.59,-0.18,4.94,-40.8,-40.1,-25.5,126,1176,-593
468,14.51,0.67,5.41,-68.8,-70.2,-18.4,105,1171,-591
469,14.93,1.57,5.07,-99.4,-97.5,-9.6,95,1168,-626
470,14.71,2.17,4.53,-129.8,-110.6,4.4,62,1146,-650
471,13.60,2.35,3.97,-161.4,-98.3,40.2,20,1123,-687
472,12.88,2.08,4.03,-185.4,-66.0,84.0,-57,1118,-738
473,12.20,1.41,4.28,-189.3,-24.6,101.8,-151,1106,-753
474,10.68,0.92,3.99,-167.0,2.2,81.8,-227,1106,-761
475,8.94,0.40,3.04,-130.4,17.8,46.0,-302,1108,-773
476,7.92,0.12,2.53,-98.1,23.9,23.5,-346,1116,-753
477,6.59,0.17,2.39,-78.6,22.3,28.1,-376,1131,-746
478,5.97,0.22,2.31,-71.9,15.8,47.7,-421,1118,-741
479,5.83,0.51,1.89,-69.4,6.2,70.4,-440,1128,-733
480,5.81,0.69,0.41,-57.5,-0.3,83.4,-566,1101,-736
481,5.94,1.01,0.52,-45.7,-0.8,74.4,-608,1086,-725
482,6.83,1.64,1.46,-29.1,-10.1,63.6,-643,1086,-725
483,7.25,2.00,1.88,-14.0,-19.1,56.6,-670,1086,-725
484,7.72,2.25,1.77,-2.5,-16.2,49.4,-692,1061,-731
485,8.51,2.70,1.74,10.5,-9.8,35.7,-697,1061,-715
486,9.46,3.04,1.94,26.9,-10.5,14.9,-715,1048,-731
487,10.11,3.21,1.97,40.3,-15.6,-0.5,-712,1051,-720
488,10.61,3.14,1.78,47.7,-15.6,-3.2,-712,1051,-746
489,10.96,2.92,1.40,53.1,-6.5,-4.5,-695,1061,-743
490,12.15,2.97,2.12,65.6,-2.7,-15.1,-672,1071,-731
491,12.96,3.03,3.20,84.9,-6.0,-39.7,-647,1078,-741
492,13.11,2.74,3.09,101.9,1.0,-71.5,-593,1093,-746
493,13.10,2.23,2.57,109.3,16.3,-96.2,-525,1113,-741
494,12.94,1.62,2.24,107.3,27.3,-102.7,-475,1121,-720
495,12.34,1.08,2.35,99.9,31.0,-91.2,-388,1141,-731
496,12.08,0.90,2.86,95.6,19.8,-76.2,-336,1148,-717
497,11.89,0.83,2.97,94.6,-2.4,-64.9,-275,1158,-710
498,11.51,0.71,2.63,91.6,-20.1,-53.3,-232,1148,-707
499,10.70,0.46,2.23,85.8,-23.6,-41.4,-173,1146,-705
500,9.49,0.18,1.97,78.5,-12.7,-29.3,-151,1128,-720
501,8.49,-0.41,1.43,76.4,8.1,-19.7,-108,1123,-733
502,7.54,-0.62,1.45,82.2,26.2,-15.7,-90,1128,-727
503,7.36,-1.35,1.18,99.0,43.6,-15.8,-55,1133,-697
504,7.42,-1.97,1.47,121.1,50.9,-18.5,-12,1133,-690
505,6.18,-1.49,1.74,132.5,35.6,-30.5,20,1151,-685
506,6.52,-1.75,1.93,123.6,23.4,-27.3,70,1133,-670
507,7.01,-1.88,1.92,102.7,12.0,-11.7,116,1128,-660
508,7.25,-2.07,1.71,77.8,3.2,1.5,141,1111,-655
509,7.79,-2.31,2.07,55.4,-4.3,0.2,166,1101,-680
510,8.34,-2.40,2.50,33.3,-7.9,-11.3,166,1073,-665
511,8.84,-2.31,2.62,10.2,-4.5,-23.3,193,1088,-682
512,9.39,-2.06,2.61,-12.0,-1.7,-26.6,196,1083,-672
513,9.86,-1.95,2.50,-28.6,-3.1,-21.2,203,1086,-657
514,10.44,-1.84,2.72,-38.9,-4.8,-17.2,208,1088,-662
515,10.98,-1.75,2.84,-45.1,-2.9,-15.1,213,1101,-667
516,11.29,-1.67,2.60,-49.8,8.8,-11.3,193,1106,-657
517,12.05,-0.88,2.59,-45.7,19.6,-4.7,178,1106,-646
518,13.27,-0.23,3.46,-30.2,16.7,-1.5,176,1126,-638
519,13.89,-0.16,3.97,-13.8,6.9,-4.0,168,1126,-638
520,14.49,-0.35,4.15,-9.8,-2.0,-5.6,181,1131,-621
521,15.69,-0.05,4.80,-20.2,-16.1,0.5,181,1143,-626
522,16.14,0.12,4.67,-45.0,-28.7,15.6,158,1131,-643
523,15.36,0.39,3.74,-79.3,-25.6,36.3,128,1123,-646
524,14.25,0.72,3.15,-111.5,-13.2,55.1,85,1128,-660
525,13.02,1.17,3.43,-134.3,-4.4,66.5,50,1138,-672
526,11.44,1.36,3.85,-145.7,-4.0,70.2,-20,1161,-682
527,9.71,1.27,3.97,-146.3,-8.5,66.6,-97,1161,-690
528,8.18,1.01,3.58,-142.8,-12.7,62.0,-163,1176,-685
529,6.31,0.62,2.67,-134.9,-23.3,63.1,-300,1151,-702
530,5.91,0.61,2.38,-131.6,-30.2,67.1,-363,1146,-715
531,5.98,0.75,2.19,-127.4,-37.2,68.9,-440,1138,-727
532,6.34,1.12,2.01,-121.9,-39.1,65.1,-492,1101,-753
533,7.01,1.51,1.70,-113.8,-37.3,58.2,-546,1083,-766
534,7.15,1.51,1.24,-103.8,-30.3,51.6,-586,1063,-781
535,7.41,1.61,1.29,-89.9,-20.1,45.5,-650,1031,-788
536,7.89,2.02,1.94,-69.4,-13.3,39.0,-672,1023,-791
537,8.41,2.34,2.20,-43.8,-12.6,28.0,-702,988,-801
538,9.05,2.60,1.99,-18.2,-12.2,15.7,-712,991,-796
539,9.53,2.72,1.60,2.7,-7.3,4.8,-732,976,-806
540,9.88,2.90,1.41,19.6,4.8,-3.7,-717,981,-812
541,10.29,2.95,1.14,33.9,19.1,-11.9,-720,991,-803
542,10.54,2.77,0.77,48.2,27.8,-18.0,-710,996,-791
543,11.11,2.95,1.01,67.1,21.0,-24.8,-682,1021,-778
544,12.07,3.30,2.44,92.3,4.7,-37.3,-660,1041,-768
545,12.07,2.99,3.06,113.2,3.3,-51.4,-608,1048,-771
546,12.11,2.40,2.64,122.1,21.0,-69.9,-548,1078,-773
547,12.33,2.08,2.31,122.6,36.3,-84.8,-492,1086,-776
548,12.53,1.94,2.28,118.8,38.1,-87.7,-423,1116,-743
549,12.68,1.75,2.19,115.0,22.2,-82.2,-348,1123,-753
550,12.63,1.56,2.17,108.6,0.5,-73.8,-285,1138,-738
551,11.92,1.20,2.04,98.7,-12.3,-61.5,-211,1133,-725
552,10.71,0.74,1.89,86.7,-8.6,-48.9,-181,1121,-743
553,9.37,0.26,2.03,76.7,7.8,-40.0,-153,1116,-736
554,8.16,-0.17,2.18,74.0,20.7,-36.4,-87,1136,-743
555,7.37,-0.57,1.91,79.7,25.4,-35.2,-70,1121,-727
556,6.47,-0.85,1.39,90.2,19.7,-31.7,-25,1138,-705
557,6.04,-0.98,1.23,99.8,6.7,-27.4,10,1148,-705
558,6.32,-1.25,1.29,105.0,-3.8,-22.7,42,1113,-707
559,6.91,-1.43,1.67,105.9,-11.9,-21.7,72,1096,-700
560,7.50,-1.68,1.83,99.9,-14.7,-26.9,113,1096,-715
561,8.05,-1.92,1.86,85.5,-10.3,-30.6,161,1066,-717
562,8.38,-2.04,1.80,65.2,-2.8,-29.5,171,1036,-731
563,8.78,-2.07,2.00,45.3,3.8,-30.0,208,1038,-720
564,9.16,-2.06,2.21,28.4,7.0,-33.7,220,1021,-720
565,10.01,-1.88,2.51,14.4,4.1,-38.1,237,1023,-722
566,10.65,-1.82,2.50,-0.1,0.3,-37.0,257,1031,-712
567,11.41,-1.74,2.54,-15.8,2.1,-29.8,280,1021,-687
568,11.62,-1.69,2.38,-32.4,17.6,-24.3,282,1023,-687
569,11.50,-1.51,2.02,-44.5,44.0,-16.8,280,1046,-667
570,12.26,-0.56,2.53,-41.6,54.5,-7.1,270,1051,-655
571,13.15,0.11,3.62,-22.4,37.3,-5.1,265,1088,-641
572,13.44,-0.15,3.87,-5.7,15.2,-9.6,270,1096,-636
573,13.96,-0.36,3.97,-8.0,3.1,-9.4,275,1103,-603
574,15.19,-0.03,4.50,-27.0,-13.7,3.7,275,1098,-616
575,15.83,0.38,4.40,-58.3,-32.6,30.1,255,1108,-631
576,15.46,0.90,3.74,-94.2,-31.2,60.2,217,1106,-641
577,14.65,1.38,3.62,-124.5,-16.2,79.3,156,1118,-652
578,11.44,1.84,4.05,-145.3,-2.3,85.4,12,1151,-677
579,9.63,1.57,3.65,-142.1,-7.3,83.3,-55,1156,-690
580,8.12,1.18,3.28,-138.5,-16.4,82.1,-121,1151,-680
581,7.07,0.86,2.79,-136.3,-26.6,83.6,-203,1163,-705
582,6.43,0.67,2.33,-136.8,-36.7,84.8,-267,1153,-725
583,6.26,0.75,2.04,-139.2,-45.9,84.9,-353,1133,-741
584,6.44,0.83,1.62,-143.5,-49.2,83.8,-421,1121,-763
585,6.59,1.02,1.29,-147.1,-41.8,82.8,-485,1091,-766
586,6.95,1.23,1.25,-145.7,-26.5,78.6,-568,1061,-788
587,7.51,1.60,1.77,-134.9,-17.3,67.7,-616,1018,-798
588,8.05,1.91,1.95,-115.6,-23.7,54.1,-677,1003,-793
589,8.31,2.06,1.48,-94.4,-36.0,47.5,-720,971,-808
590,8.87,2.41,1.18,-73.3,-42.7,43.3,-763,935,-815
591,9.83,2.83,1.11,-47.6,-44.9,39.9,-801,905,-820
592,10.67,3.02,0.86,-19.8,-40.1,27.3,-831,870,-835
593,11.16,3.01,0.48,7.8,-23.4,4.7,-828,855,-842
594,11.54,2.91,0.02,31.7,4.7,-22.5,-818,870,-852
595,12.04,2.89,-0.11,53.7,29.2,-40.5,-801,875,-840
596,12.27,3.03,0.39,75.9,42.8,-50.4,-758,900,-837
597,12.30,3.20,1.82,100.9,41.4,-57.9,-730,927,-832
598,11.77,2.83,2.68,124.7,35.3,-64.4,-682,973,-817
599,11.55,2.36,2.81,139.6,33.6,-69.6,-616,1008,-812
600,11.66,1.86,2.56,143.7,33.4,-71.9,-556,1033,-798
601,12.27,1.78,2.60,141.3,26.4,-66.7,-495,1068,-783
602,12.75,1.56,2.55,136.3,10.1,-54.3,-428,1076,-786
603,12.81,1.10,2.09,128.9,-4.0,-46.7,-381,1088,-778
604,12.10,0.41,1.49,115.1,1.0,-51.0,-326,1091,-783
605,10.50,-0.10,1.02,98.6,27.7,-55.2,-277,1091,-783
606,9.35,-0.26,1.48,88.8,54.3,-55.5,-225,1111,-751
607,8.18,-0.76,1.63,90.3,68.9,-57.5,-183,1128,-746
608,7.18,-1.43,1.67,102.7,72.7,-58.3,-133,1156,-702
609,5.92,-1.57,1.58,112.5,64.5,-56.6,-80,1161,-677
610,5.71,-2.05,1.48,114.9,53.0,-49.5,-22,1166,-643
611,5.75,-2.07,1.65,112.5,33.3,-41.0,30,1168,-652
612,6.10,-2.11,1.77,104.8,12.1,-30.8,62,1173,-621
613,6.50,-2.15,2.13,91.8,-6.5,-19.3,105,1161,-631
614,7.42,-2.21,2.55,76.4,-24.4,-11.6,151,1141,-643
615,8.44,-2.22,3.06,57.7,-37.8,-13.3,171,1123,-650
616,9.47,-2.11,3.32,34.4,-39.9,-17.6,178,1091,-662
617,10.42,-1.94,3.17,8.3,-28.7,-16.7,196,1071,-660
618,11.14,-1.72,3.04,-16.8,-11.5,-12.3,206,1073,-670
619,11.67,-1.45,3.07,-32.4,1.1,-10.6,198,1063,-682
620,11.87,-1.34,2.95,-38.3,9.0,-13.8,203,1086,-672
621,12.16,-0.91,2.95,-36.6,13.4,-16.7,198,1081,-675
622,12.67,-0.50,2.79,-30.9,12.8,-14.9,183,1108,-655
623,12.76,-0.34,2.49,-24.9,15.2,-9.5,206,1116,-650
624,12.83,-0.13,2.55,-16.6,26.6,-6.4,178,1121,-633
625,13.43,0.11,3.00,-5.2,35.7,-13.8,186,1133,-628
626,14.63,0.40,3.78,3.1,28.4,-22.1,176,1131,-611
627,15.32,0.10,4.00,-25.9,-13.9,10.3,193,1138,-601
628,14.72,0.23,3.53,-59.6,0.1,27.5,201,1138,-628
629,13.59,0.42,3.08,-91.0,20.7,33.7,141,1141,-616
630,12.45,0.92,3.40,-112.2,26.0,38.3,111,1178,-603
631,11.80,1.61,4.03,-120.4,3.7,48.1,62,1221,-601
632,10.80,2.05,3.50,-120.0,-32.8,58.5,0,1203,-608
633,10.36,1.86,3.47,-122.9,-53.2,70.8,-50,1208,-623
634,9.57,1.89,3.16,-127.1,-62.4,80.0,-121,1191,-638
635,9.03,1.90,3.01,-127.6,-64.7,76.5,-201,1168,-685
636,8.25,1.68,2.68,-126.1,-61.0,64.0,-245,1168,-712
637,7.60,1.61,2.61,-123.2,-52.7,53.0,-317,1138,-743
638,7.06,1.53,2.50,-116.8,-42.6,47.1,-351,1126,-756
639,6.48,1.15,2.06,-109.7,-30.1,40.8,-421,1101,-763
640,5.99,0.94,1.86,-103.1,-16.5,32.2,-457,1081,-778
641,5.65,0.85,1.67,-97.2,-4.8,24.6,-487,1081,-773
642,5.37,0.87,1.47,-89.6,1.2,23.0,-530,1058,-791
643,5.36,0.95,1.36,-79.0,2.5,23.3,-556,1043,-781
644,5.63,1.14,1.24,-64.3,1.7,16.9,-578,1046,-778
645,6.45,1.46,1.37,-45.8,1.1,3.7,-608,1041,-783
646,7.20,1.73,1.43,-26.5,-0.0,-9.2,-621,1036,-793
647,8.34,2.11,1.50,-8.7,-4.9,-12.1,-606,1036,-788
648,9.51,2.39,1.51,6.5,-7.2,-12.0,-608,1021,-781
649,10.39,2.45,1.32,19.9,1.1,-22.8,-596,1021,-796
650,10.95,2.38,1.46,29.8,18.0,-43.1,-571,1041,-812
651,11.20,2.80,2.11,37.4,34.9,-53.1,-543,1056,-793
652,11.36,3.05,2.67,45.7,42.0,-49.4,-525,1073,-771
653,11.35,2.90,2.87,56.2,34.8,-46.0,-485,1083,-781
654,11.25,3.01,3.41,69.1,24.9,-48.1,-447,1103,-758
655,11.19,3.19,3.79,86.8,20.6,-51.9,-403,1113,-743
656,11.13,2.89,3.81,105.5,16.8,-61.4,-358,1136,-743
657,11.12,2.31,3.76,118.0,12.3,-71.0,-302,1138,-727
658,11.24,1.99,3.84,119.8,10.1,-69.8,-225,1148,-741
659,11.55,1.90,3.77,112.5,11.4,-61.4,-178,1148,-717
660,11.90,1.83,3.57,101.0,11.7,-52.5,-118,1148,-712
661,11.90,1.60,3.23,88.0,11.8,-43.6,-80,1133,-710
662,10.84,1.04,2.49,73.4,17.3,-37.5,-42,1128,-715
663,9.42,0.57,2.28,59.6,27.3,-31.1,-12,1131,-695
664,8.26,0.16,2.21,51.4,30.5,-21.9,12,1146,-692
665,7.18,-0.17,1.87,50.1,25.2,-11.2,42,1136,-657
666,6.55,-0.37,1.34,54.1,17.2,-5.5,55,1143,-665
667,6.25,-0.52,0.88,61.0,14.0,-6.4,65,1143,-657
668,6.36,-0.51,0.78,67.7,19.8,-9.3,100,1151,-638
669,6.21,-0.77,0.77,70.1,34.2,-11.6,121,1126,-655
670,6.59,-1.03,0.99,69.7,43.6,-12.0,143,1131,-631
671,6.96,-1.10,0.94,67.9,39.4,-9.1,161,1138,-618
672,7.22,-1.31,0.51,64.8,29.6,-5.7,191,1138,-596
673,8.27,-1.62,0.40,65.8,23.4,0.2,203,1143,-606
674,9.00,-1.71,0.88,70.5,16.8,0.1,232,1121,-601
675,10.06,-1.43,1.40,69.8,18.1,-4.2,247,1123,-593
676,11.96,-0.86,2.21,38.2,42.9,-14.1,282,1118,-586
677,11.69,-0.64,2.65,12.7,36.7,-20.5,302,1123,-568
678,11.50,-0.99,2.69,-19.0,25.0,-13.4,302,1118,-547
679,11.31,-0.97,2.80,-47.7,19.6,2.3,295,1148,-532
680,11.49,-0.32,2.84,-60.9,17.6,14.6,285,1168,-525
681,12.42,0.41,3.56,-51.3,5.9,12.0,260,1171,-527
682,12.99,0.53,4.06,-33.2,-9.5,-6.2,235,1181,-515
683,13.61,0.31,4.21,-25.8,-15.7,-15.2,240,1186,-522
684,14.44,0.21,4.55,-33.5,-19.5,-7.8,235,1163,-532
685,14.82,0.25,4.48,-53.8,-26.1,11.4,232,1183,-527
686,14.71,0.37,4.07,-79.2,-31.1,34.5,196,1183,-550
687,14.14,0.65,3.90,-102.1,-35.8,53.8,161,1186,-552
688,13.01,1.52,3.62,-115.8,-46.3,63.4,111,1203,-581
689,11.62,1.46,4.04,-118.2,-57.9,72.5,40,1188,-606
690,10.30,1.48,4.02,-119.5,-58.9,85.6,-20,1188,-636
691,9.08,1.15,3.54,-117.9,-56.6,88.0,-90,1176,-665
692,7.99,0.90,3.08,-115.1,-52.7,83.1,-146,1163,-687
693,7.14,0.82,2.80,-112.9,-51.0,74.9,-220,1146,-712
694,6.84,0.86,2.74,-112.8,-50.2,68.1,-272,1128,-753
695,6.55,0.92,2.44,-116.4,-42.7,66.4,-317,1121,-763
696,6.44,0.92,2.17,-121.6,-27.0,65.5,-403,1088,-773
697,6.39,1.01,2.12,-123.6,-8.2,60.1,-452,1076,-783
698,6.62,1.25,2.41,-117.6,-1.5,50.8,-512,1061,-783
699,6.56,1.42,2.41,-106.0,-4.8,42.3,-563,1056,-781
700,6.58,1.52,2.43,-90.9,-14.8,38.0,-611,1023,-793
701,7.19,1.83,2.49,-74.0,-24.7,37.6,-643,1013,-812
702,8.13,2.15,2.38,-55.0,-23.9,33.5,-672,1003,-806
703,8.95,2.39,1.93,-34.9,-8.2,19.6,-710,973,-812
704,9.64,2.60,1.86,-13.8,15.8,-2.5,-692,991,-812
705,10.19,2.84,2.34,7.7,37.6,-20.2,-697,983,-812
706,10.58,2.96,2.55,29.5,49.1,-37.7,-687,993,-788
707,11.06,2.88,2.11,46.1,54.6,-53.7,-657,1036,-773
708,11.39,2.93,1.66,57.7,56.1,-57.9,-611,1063,-753
709,11.87,3.27,2.13,72.3,52.9,-48.3,-571,1093,-743
710,12.02,3.50,3.28,94.0,49.5,-45.3,-527,1116,-725
711,11.95,3.31,3.65,117.7,48.9,-57.4,-502,1131,-705
712,12.13,3.06,3.54,133.9,47.0,-73.5,-421,1166,-687
713,12.33,2.75,3.27,135.5,37.9,-74.3,-356,1188,-675
714,12.54,2.54,2.88,127.5,20.4,-56.2,-287,1203,-650
715,12.50,2.20,2.65,115.9,3.0,-33.6,-222,1203,-657
716,12.07,1.92,2.63,105.4,-5.5,-19.2,-183,1201,-646
717,11.05,1.54,2.60,96.5,-1.4,-16.1,-156,1196,-652
718,9.90,1.17,2.52,90.2,14.8,-16.8,-105,1176,-660
719,8.74,0.74,2.39,90.0,33.9,-18.3,-82,1206,-638
720,7.43,0.10,2.08,96.0,48.6,-20.9,-35,1201,-618
721,6.74,-0.54,1.75,111.5,59.6,-18.5,0,1218,-606
722,6.79,-1.32,1.95,129.7,76.9,-5.2,35,1233,-578
723,7.34,-2.12,2.20,148.7,92.2,10.7,67,1223,-550
724,7.33,-2.13,2.34,164.0,87.4,8.0,123,1223,-520
725,6.31,-1.83,2.64,146.6,40.5,-20.6,227,1208,-481
726,6.48,-1.74,3.36,109.1,18.3,-15.9,270,1213,-478
727,6.84,-1.83,3.71,57.9,4.1,-3.3,315,1178,-476
728,7.55,-1.69,4.24,8.3,-5.6,6.4,328,1176,-471
729,8.17,-1.39,4.42,-27.5,-18.2,1.6,317,1161,-483
730,9.17,-1.09,4.55,-48.0,-34.4,-11.9,307,1166,-502
731,9.87,-0.98,4.27,-60.6,-46.9,-20.2,305,1173,-507
732,10.28,-0.95,4.08,-68.3,-46.8,-15.7,285,1158,-507
733,10.96,-0.76,3.90,-69.7,-32.4,-5.7,270,1166,-515
734,12.05,-0.23,3.54,-58.4,-13.8,0.1,255,1171,-512
735,13.04,0.36,3.91,-31.4,-1.6,-1.0,245,1183,-530
736,13.48,0.39,4.46,-0.2,1.9,-10.8,235,1183,-527
737,13.75,0.40,4.78,21.2,3.3,-17.6,245,1178,-515
738,14.27,0.54,5.31,26.9,-3.3,-11.8,245,1158,-520
739,14.76,0.60,5.42,14.9,-26.5,8.9,270,1166,-525
740,14.82,0.75,4.96,-14.0,-48.0,36.7,255,1153,-552
741,14.32,0.95,4.26,-52.3,-49.7,60.8,225,1131,-573
742,13.41,1.37,3.81,-89.2,-35.1,79.3,183,1151,-606
743,12.25,1.60,4.08,-117.3,-21.6,87.8,151,1156,-608
744,10.61,1.55,3.95,-135.5,-14.7,84.6,57,1153,-621
745,8.91,1.19,3.70,-148.1,-10.6,74.7,-2,1188,-646
746,7.93,0.82,3.54,-151.7,-3.6,63.9,-72,1188,-655
747,6.95,0.59,3.29,-148.6,-0.5,52.4,-153,1196,-657
748,6.29,0.51,2.93,-145.5,0.8,48.2,-217,1193,-650
749,5.90,0.57,2.70,-144.7,-0.5,50.0,-280,1198,-660
750,5.80,0.66,2.41,-143.9,-5.5,52.1,-351,1198,-660
751,5.97,0.94,2.37,-140.4,-14.2,54.3,-403,1183,-660
752,6.73,1.36,2.45,-131.6,-22.0,55.2,-452,1171,-677
753,7.05,1.43,2.12,-120.3,-25.9,48.9,-520,1153,-680
754,7.73,1.77,2.36,-105.7,-19.2,37.1,-556,1116,-692
755,7.72,1.82,2.09,-90.0,-1.9,18.5,-606,1118,-690
756,8.09,2.08,2.33,-71.3,10.2,7.0,-641,1113,-695
757,8.46,2.51,2.80,-47.3,10.0,5.3,-647,1101,-700
758,8.82,2.75,2.96,-19.6,2.9,0.6,-662,1098,-692
759,9.38,2.91,2.92,7.0,-2.3,-13.9,-670,1093,-685
760,10.07,3.05,2.85,28.2,1.4,-35.2,-662,1088,-720
761,10.60,3.08,2.35,41.1,11.4,-55.1,-621,1111,-700
762,10.78,2.94,1.75,49.4,23.6,-66.0,-583,1128,-707
763,10.91,3.26,2.03,58.4,36.3,-65.2,-546,1138,-680
764,11.48,3.54,3.28,74.5,36.6,-62.9,-495,1153,-665
765,11.38,3.31,3.98,95.3,38.5,-73.4,-442,1173,-667
766,11.36,2.99,3.92,113.4,51.1,-94.5,-388,1198,-638
767,11.57,2.44,3.72,123.5,58.7,-109.5,-323,1208,-628
768,11.65,2.09,3.50,124.7,55.1,-106.9,-225,1236,-593
769,12.04,1.89,3.82,120.5,36.2,-87.7,-146,1253,-571
770,12.04,1.47,4.06,110.9,9.7,-60.4,-100,1231,-555
771,11.74,1.18,4.23,97.6,-12.4,-35.6,-35,1231,-547
772,11.12,0.81,3.94,83.6,-14.1,-19.3,0,1226,-571
773,9.88,0.29,3.22,72.5,2.0,-8.2,32,1206,-578
774,9.70,-2.47,1.76,122.1,91.5,38.7,75,1226,-552
775,8.12,-2.13,2.50,167.4,99.2,46.3,111,1243,-522
776,7.11,-1.81,2.59,194.9,99.3,43.7,148,1233,-487
777,6.61,-1.68,2.51,195.9,95.8,37.3,198,1233,-456
778,5.49,-1.14,2.74,175.6,73.4,17.5,247,1226,-458
779,5.64,-1.08,3.15,139.3,49.2,6.5,297,1218,-431
780,5.58,-1.04,3.65,90.7,26.6,12.0,333,1193,-426
781,6.09,-1.10,4.11,36.9,11.8,23.7,338,1186,-413
782,6.71,-1.19,4.49,-9.7,-1.2,24.3,341,1183,-443
783,7.42,-1.23,4.54,-39.9,-17.1,6.1,326,1191,-443
784,8.20,-1.21,4.11,-54.1,-28.3,-15.6,317,1196,-448
785,10.00,-1.16,3.74,-53.5,-24.3,-21.5,297,1201,-456
786,11.14,-0.86,4.39,-44.9,-15.4,-12.9,302,1186,-456
787,10.71,-1.00,4.75,-38.5,-9.6,-8.1,295,1206,-451
788,10.47,-0.93,4.47,-43.0,-1.4,-6.0,275,1196,-446
789,11.16,0.23,4.90,-52.1,3.6,3.8,262,1211,-446
790,12.37,1.50,4.96,-55.9,-2.5,11.3,250,1223,-441
791,13.90,2.00,4.67,-55.5,-6.7,-3.3,240,1231,-448
792,14.90,2.40,1.62,-46.4,4.4,-24.6,232,1231,-446
793,15.62,2.75,1.41,-26.7,-23.2,-48.1,220,1238,-448
794,13.48,2.61,6.51,-30.9,-67.5,-33.5,213,1231,-446
795,13.33,2.00,5.64,-66.6,-86.8,2.5,208,1226,-481
796,13.45,2.35,4.03,-109.3,-102.4,19.0,183,1208,-497
797,12.46,2.23,3.88,-143.0,-107.2,28.4,136,1196,-545
798,11.50,1.95,4.17,-169.6,-95.3,40.9,80,1196,-578
799,10.24,1.56,3.97,-189.5,-72.5,46.1,15,1188,-626
800,8.74,0.91,3.55,-200.9,-50.2,41.7,-50,1178,-638
801,7.46,0.49,3.37,-203.2,-37.3,31.8,-128,1173,-662
802,6.31,0.35,3.03,-199.4,-34.4,26.3,-206,1176,-677
803,5.66,0.18,2.76,-191.1,-34.0,27.6,-252,1161,-685
804,5.29,0.17,2.48,-179.3,-34.8,31.2,-333,1168,-712
805,5.29,0.34,2.37,-162.4,-37.3,32.4,-381,1143,-712
806,5.49,0.48,2.27,-141.2,-39.4,29.1,-457,1113,-738
807,6.17,0.89,2.43,-117.9,-42.4,23.6,-485,1086,-771
808,6.78,1.23,2.48,-95.9,-43.1,21.0,-535,1066,-771
809,7.34,1.38,2.50,-77.7,-33.1,22.3,-563,1028,-801
810,7.77,1.54,2.55,-58.2,-16.3,21.3,-581,1016,-796
811,8.44,1.90,3.08,-33.4,-7.1,12.1,-616,1008,-812
812,9.09,2.20,3.27,-6.3,-5.8,2.7,-618,1006,-812
813,9.53,2.39,2.91,17.0,0.4,-2.9,-621,1001,-812
814,9.97,2.45,2.78,35.6,16.0,-3.4,-601,1018,-788
815,10.38,2.43,2.59,53.5,34.6,-6.8,-593,1021,-801
816,10.86,2.48,2.23,72.9,47.1,-12.1,-573,1061,-776
817,11.30,2.52,1.88,93.8,52.2,-13.0,-535,1073,-761
818,11.90,2.73,2.27,120.1,41.2,-14.8,-535,1091,-751
819,11.98,2.67,2.74,147.0,26.8,-19.8,-470,1133,-733
820,12.08,2.45,2.88,164.8,30.6,-28.4,-428,1141,-715
821,12.25,2.17,2.75,170.8,46.7,-39.6,-373,1173,-707
822,12.49,1.93,2.62,167.6,56.9,-48.6,-295,1181,-670
823,12.92,0.52,0.44,129.7,46.5,-54.2,-148,1223,-616
824,13.68,-0.36,-1.29,109.2,60.4,-40.0,-95,1221,-611
825,14.18,-0.62,0.15,118.9,74.7,-6.0,-45,1233,-581
826,10.79,-0.80,2.27,147.5,64.3,16.5,0,1243,-550
827,7.23,-0.55,3.09,161.8,49.4,22.6,20,1246,-510
828,6.02,-0.47,3.68,148.7,32.9,28.7,75,1236,-535
829,5.81,-0.52,2.87,120.9,27.2,28.2,113,1251,-530
830,5.72,-0.53,2.69,86.9,22.0,20.7,133,1233,-527
831,5.57,-0.49,3.03,53.1,20.6,16.9,151,1236,-517
832,5.57,-0.63,3.59,23.2,15.2,14.2,146,1216,-537
833,5.81,-0.76,4.04,-0.5,7.3,6.3,136,1206,-520
834,6.13,-0.76,4.28,-17.8,-0.0,-7.8,156,1231,-507
835,6.20,-0.81,4.15,-31.2,-2.7,-19.8,151,1221,-515
836,6.50,-1.03,3.80,-43.0,-1.5,-24.0,158,1226,-517
837,7.43,-1.42,3.54,-49.1,-1.7,-19.6,141,1233,-512
838,10.00,-2.33,0.25,-35.7,19.5,-4.4,131,1236,-500
839,13.39,-2.62,0.60,4.6,52.8,14.8,133,1251,-505
840,12.04,-1.89,4.35,33.3,74.5,37.9,126,1268,-473
841,10.19,-1.87,5.69,48.7,68.9,34.2,128,1281,-441
842,9.75,-1.58,5.36,49.3,50.3,16.5,138,1297,-416
843,11.28,-0.06,5.12,25.6,45.3,9.5,146,1302,-406
844,12.10,1.71,4.95,-22.2,50.2,7.9,148,1307,-392
845,12.72,2.90,5.52,-84.6,41.9,-4.5,133,1317,-355
846,11.48,1.98,6.47,-114.3,16.0,-26.2,90,1337,-347
847,12.91,1.41,2.92,-110.8,9.7,-40.1,70,1345,-327
848,13.82,2.28,4.41,-90.9,-23.0,-52.4,42,1375,-318
849,11.64,2.18,5.99,-81.3,-69.2,-54.3,7,1357,-340
850,11.35,1.99,6.69,-87.7,-105.8,-39.8,12,1347,-357
851,11.02,2.12,6.78,-104.9,-127.7,-17.6,-17,1340,-423
852,11.26,2.40,6.34,-124.8,-125.3,-4.8,-52,1312,-471
853,10.41,2.02,5.15,-145.7,-88.8,-8.2,-102,1290,-512
854,9.29,1.16,4.26,-164.1,-33.7,-26.1,-138,1285,-545
855,7.77,0.78,4.24,-172.9,9.3,-39.7,-176,1287,-555
856,6.58,0.55,4.31,-168.7,26.9,-41.9,-232,1302,-537
857,5.36,0.27,3.89,-154.8,25.9,-38.0,-270,1302,-542
858,4.77,0.02,3.16,-137.5,16.0,-31.5,-290,1302,-522
859,4.61,0.01,2.74,-119.9,0.5,-22.7,-326,1310,-500
860,4.96,0.22,2.56,-104.0,-15.3,-10.2,-383,1302,-507
861,5.39,0.54,2.61,-89.9,-31.7,6.6,-398,1290,-532
862,5.98,0.96,2.75,-76.5,-41.6,18.7,-435,1292,-545
863,6.48,1.40,2.85,-60.5,-39.7,23.7,-460,1261,-562
864,7.16,1.66,3.01,-41.6,-28.0,19.4,-500,1258,-583
865,7.99,2.18,3.28,-19.4,-13.3,8.9,-512,1236,-608
866,8.88,2.65,3.69,4.6,-1.3,-1.0,-522,1228,-611
867,9.56,2.92,3.95,25.4,10.2,-8.8,-500,1226,-598
868,10.01,2.97,3.90,40.6,24.7,-14.2,-492,1243,-596
869,10.27,2.90,3.38,52.7,34.8,-14.1,-475,1251,-581
870,10.38,2.58,2.68,64.2,36.4,-11.5,-462,1276,-573
871,11.07,2.58,2.44,77.9,30.9,-10.9,-418,1281,-557
872,12.66,3.15,3.70,112.1,9.1,-19.1,-343,1297,-530
873,12.30,2.81,3.65,117.7,11.9,-20.8,-300,1307,-530
874,11.92,2.27,3.53,115.0,23.8,-14.3,-240,1307,-525
875,11.84,1.68,2.93,113.0,25.9,-6.1,-203,1330,-515
876,12.57,1.43,2.74,116.5,15.9,2.7,-158,1322,-505
877,12.71,1.60,3.22,118.0,-3.0,18.2,-126,1320,-497
878,12.46,1.70,3.58,112.1,-20.1,39.1,-87,1315,-517
879,11.35,1.87,3.68,100.0,-36.4,61.0,-80,1297,-520
880,10.14,1.63,3.22,84.3,-33.9,70.2,-70,1285,-562
881,9.24,1.11,2.89,71.9,-14.2,63.8,-67,1263,-576
882,7.97,0.92,2.92,67.6,5.3,47.6,-55,1263,-576
883,7.19,0.56,2.81,66.3,21.7,32.7,-57,1263,-596
884,5.67,0.36,2.68,65.8,19.4,13.8,-42,1258,-578
885,5.17,-0.15,2.51,57.4,16.8,6.1,-25,1258,-565
886,5.29,-0.46,2.72,40.5,18.8,5.3,-15,1261,-568
887,5.86,-0.65,2.81,24.0,19.3,4.9,-20,1253,-568
888,6.26,-0.81,2.88,14.3,18.7,3.3,-17,1273,-550
889,6.28,-1.08,2.53,11.7,12.3,-3.3,-2,1273,-552
890,6.30,-1.30,2.28,13.2,0.9,-7.6,12,1273,-555
891,6.48,-1.79,2.02,13.6,-9.1,-5.0,15,1273,-552
892,7.28,-2.16,1.93,14.8,-12.7,5.3,7,1266,-552
893,8.46,-2.41,1.47,19.8,1.0,16.5,0,1263,-573
894,9.67,-2.17,2.45,29.8,22.9,22.1,27,1273,-552
895,11.20,-2.16,3.18,35.2,61.8,22.3,5,1256,-545
896,10.84,-2.73,3.97,44.3,78.5,14.6,20,1278,-527
897,10.11,-3.00,4.35,51.6,75.4,5.8,27,1300,-497
898,10.70,-2.30,4.36,38.9,74.9,7.1,57,1327,-448
899,12.17,-0.27,4.92,2.3,75.2,5.6,52,1330,-433
900,13.19,1.35,4.99,-47.9,67.7,-13.1,42,1367,-400
901,12.60,1.87,6.56,-84.0,50.1,-30.7,17,1372,-375
902,12.78,0.97,4.64,-91.0,39.9,-43.3,-2,1385,-350
903,13.53,0.97,5.43,-75.7,7.7,-61.4,-17,1395,-325
904,11.32,1.15,6.92,-66.3,-42.2,-70.3,-40,1395,-325
905,10.96,1.38,7.25,-77.1,-77.9,-57.5,-12,1397,-335
906,10.57,1.74,7.07,-102.2,-94.0,-31.4,-47,1370,-372
907,10.19,1.79,6.71,-125.8,-92.9,-11.7,-100,1367,-428
908,9.95,1.79,6.45,-136.0,-85.0,-17.4,-136,1357,-461
909,9.06,1.32,5.52,-141.7,-65.6,-33.6,-176,1327,-481
910,8.20,0.81,5.00,-150.2,-46.3,-42.8,-206,1335,-512
911,7.27,0.44,4.61,-158.3,-38.3,-33.6,-252,1297,-530
912,6.28,0.01,4.02,-162.7,-38.8,-13.7,-315,1305,-542
913,5.91,-0.02,3.68,-158.6,-44.8,2.5,-361,1281,-555
914,5.77,0.05,3.06,-148.2,-46.4,3.8,-398,1268,-568
915,5.87,0.32,2.57,-135.5,-42.0,-1.7,-450,1256,-601
916,6.04,0.61,2.39,-122.6,-35.7,-4.6,-485,1218,-618
917,6.19,0.73,2.39,-108.9,-26.9,-0.3,-515,1208,-638
918,6.50,0.84,2.76,-91.6,-16.9,13.5,-568,1181,-650
919,7.23,1.16,3.00,-65.2,-13.6,19.8,-583,1173,-652
920,7.99,1.54,2.78,-34.0,-7.6,11.8,-613,1146,-670
921,10.05,2.72,3.06,27.8,1.5,-14.3,-606,1156,-672
922,10.77,2.61,3.01,44.7,8.5,-17.9,-593,1156,-662
923,11.08,2.17,2.85,49.8,18.0,-13.6,-578,1173,-652
924,11.40,1.90,2.85,52.8,15.8,-0.8,-566,1171,-650
925,12.15,1.91,2.78,62.5,-1.6,9.3,-556,1183,-641
926,13.23,2.35,2.95,83.4,-22.7,16.1,-527,1201,-633
927,13.58,2.53,3.20,106.1,-23.6,10.3,-510,1183,-646
928,13.27,2.47,3.35,124.1,-5.9,0.4,-482,1178,-655
929,12.70,2.16,3.15,131.6,14.9,-3.1,-421,1203,-646
930,12.20,1.60,1.96,125.2,24.6,0.9,-378,1226,-631
931,12.56,1.37,1.04,117.2,21.9,10.6,-356,1221,-618
932,13.01,1.38,1.06,116.6,11.6,24.6,-312,1243,-621
933,12.48,1.31,1.93,119.9,-0.2,41.6,-297,1236,-603
934,11.12,0.94,2.15,117.4,-6.0,54.7,-285,1243,-618
935,9.81,0.61,2.33,110.7,-4.5,58.2,-260,1243,-606
936,7.98,0.33,2.19,100.2,-0.7,57.5,-247,1236,-611
937,6.73,-0.15,2.30,88.1,-0.6,54.0,-240,1231,-626
938,5.58,-0.45,2.38,75.7,-3.1,52.1,-237,1231,-618
939,4.96,-0.69,2.57,64.9,-6.5,49.8,-230,1226,-621
940,5.08,-0.83,2.58,58.4,-6.4,42.0,-232,1243,-608
941,5.33,-1.39,2.55,50.6,-10.2,25.0,-237,1216,-626
942,6.02,-1.24,3.03,42.2,-0.4,13.5,-206,1221,-628
943,5.88,-1.84,2.49,27.2,2.9,4.9,-213,1218,-631
944,6.20,-2.50,2.19,16.7,3.8,-1.3,-196,1231,-628
945,6.29,-3.53,1.75,6.3,3.1,-1.5,-196,1256,-621
946,6.60,-4.25,0.93,2.1,3.9,2.5,-193,1228,-623
947,8.03,-5.19,0.56,7.6,11.9,2.9,-198,1221,-633
948,9.81,-4.32,0.62,18.7,20.4,9.5,-188,1231,-623
949,10.90,-3.73,1.87,18.2,42.1,19.4,-208,1238,-601
950,11.19,-3.98,3.56,14.7,53.4,25.1,-196,1253,-593
951,10.22,-3.98,4.17,16.6,41.7,27.1,-206,1258,-576
952,9.79,-3.92,3.98,11.4,30.3,34.6,-203,1285,-550
953,10.75,-2.75,3.38,2.0,35.3,37.6,-225,1295,-537
954,12.55,-1.09,3.95,-14.5,65.3,21.3,-230,1292,-522
955,12.92,0.53,5.72,-58.6,89.7,-23.8,-245,1327,-487
956,10.99,-0.63,6.39,-95.2,88.1,-59.9,-260,1352,-448
957,12.13,-1.98,1.48,-107.5,76.8,-80.2,-275,1362,-416
958,14.29,-0.06,4.41,-98.7,29.8,-89.7,-290,1395,-382
959,12.38,0.36,5.05,-99.5,-15.6,-84.4,-297,1395,-372
960,11.88,0.26,6.05,-107.0,-48.3,-70.7,-305,1367,-402
961,10.80,0.32,6.43,-113.1,-76.9,-51.4,-328,1357,-428
962,10.16,0.28,6.17,-119.9,-89.8,-34.5,-351,1347,-478
963,9.77,0.04,5.64,-126.8,-84.6,-19.1,-393,1317,-507
964,9.20,-0.29,4.58,-132.0,-72.0,-17.7,-435,1281,-552
965,8.42,-0.65,3.48,-136.1,-52.0,-20.9,-455,1253,-578
966,7.62,-0.86,2.87,-139.2,-33.4,-22.9,-497,1236,-603
967,7.15,-0.70,2.85,-135.7,-24.0,-17.9,-543,1213,-613
968,6.49,-0.59,2.74,-125.9,-17.6,-4.4,-568,1183,-633
969,6.21,-0.42,2.36,-112.9,-10.4,5.2,-621,1173,-650
970,6.52,0.24,1.84,-84.3,6.4,-1.1,-690,1146,-665
971,6.84,0.39,1.92,-77.2,16.0,-5.2,-695,1128,-652
972,7.24,0.61,2.21,-70.9,21.3,-2.1,-727,1123,-660
973,7.46,0.85,2.15,-62.6,22.5,3.4,-747,1123,-665
974,8.12,1.30,1.65,-46.7,17.0,3.9,-766,1126,-665
975,8.35,1.54,0.96,-25.6,14.0,-3.5,-763,1118,-643
976,9.48,1.96,1.16,1.4,14.8,-17.7,-768,1113,-638
977,10.65,2.09,1.11,28.7,20.1,-32.8,-750,1118,-643
978,11.20,1.72,0.70,54.9,31.4,-39.8,-730,1136,-638
979,11.55,1.34,0.51,85.6,44.1,-34.9,-700,1176,-618
980,12.06,1.48,1.39,122.3,40.8,-17.6,-660,1196,-596
981,12.60,1.88,2.47,151.4,16.1,10.4,-623,1223,-588
982,13.39,1.72,2.91,169.9,-12.2,25.8,-566,1231,-576
983,14.39,0.09,-0.04,173.6,-12.9,13.2,-520,1258,-573
984,16.31,0.11,-1.08,173.0,-16.0,2.9,-472,1258,-578
985,15.73,0.59,2.26,176.9,-31.4,18.8,-421,1278,-568
986,14.05,0.62,4.38,166.7,-28.3,42.7,-361,1266,-581
987,13.69,1.25,5.10,152.8,-23.6,63.1,-317,1263,-586
988,12.46,1.50,4.42,138.9,-20.2,73.0,-305,1263,-606
989,10.70,1.19,3.60,122.7,-15.1,71.5,-297,1248,-621
990,8.78,0.64,3.12,104.7,-8.7,60.5,-282,1261,-613
991,7.33,0.19,3.02,84.8,-5.6,52.3,-285,1258,-636
992,6.20,-0.54,3.36,65.9,-4.5,49.2,-270,1243,-611
993,5.62,-0.88,3.68,50.9,-9.6,39.1,-270,1236,-623
994,5.24,-1.11,3.62,41.4,-15.3,23.1,-272,1226,-643
995,5.13,-1.33,3.29,28.3,-16.0,11.5,-287,1226,-638
996,5.46,-0.86,2.83,19.6,-16.2,2.7,-260,1243,-652
997,6.07,-3.28,3.10,-7.2,-22.5,-17.2,-262,1233,-652
998,5.36,-2.82,2.38,-41.8,-29.1,-52.1,-242,1218,-665
999,5.67,-2.14,1.38,-61.6,-37.3,-80.7,-242,1206,-682
1000,5.82,-1.43,0.12,-68.3,-46.5,-79.9,-242,1188,-702
1001,6.13,0.04,-1.00,-56.3,-34.5,-44.1,-213,1183,-722
1002,9.17,-3.86,-2.14,-38.5,-26.5,-6.7,-211,1176,-712
1003,9.45,-2.21,-0.40,-24.7,-6.5,-18.0,-237,1178,-725
1004,10.81,-3.06,-0.49,-8.9,37.1,-21.0,-213,1171,-717
1005,12.32,-4.07,-0.01,11.8,81.0,11.4,-220,1186,-695
1006,12.79,-5.03,-0.09,35.8,90.9,54.1,-220,1216,-667
1007,13.26,-3.69,0.03,57.9,90.9,53.2,-230,1251,-631
1008,14.30,1.04,3.66,36.0,109.3,22.5,-235,1278,-591
1009,12.29,0.57,8.08,-19.9,93.2,19.2,-247,1285,-542
1010,11.12,-1.93,8.17,-81.3,49.1,28.7,-262,1312,-510
1011,13.58,-1.14,7.22,-128.1,9.2,10.7,-307,1320,-497
1012,13.04,-1.70,7.11,-145.1,-42.1,0.9,-348,1322,-502
1013,13.70,-0.94,5.82,-152.3,-73.1,-7.6,-396,1285,-542
1014,12.83,-1.07,5.55,-148.2,-89.2,-4.3,-447,1258,-581
1015,11.58,-1.16,4.81,-136.0,-83.7,16.0,-500,1221,-618
1016,11.12,-1.07,4.21,-119.4,-60.1,30.1,-551,1201,-636
1017,10.64,-1.32,3.38,-106.7,-23.8,23.3,-581,1156,-675
1018,9.75,-1.37,2.73,-103.5,11.8,14.5,-647,1143,-672
1019,7.27,-1.42,2.28,-108.6,20.6,25.5,-720,1118,-660
1020,6.52,-1.28,1.93,-109.1,7.2,31.7,-763,1101,-662
1021,6.15,-0.88,1.14,-105.5,-7.7,35.7,-798,1081,-667
1022,5.97,-0.51,0.49,-95.5,-20.3,30.7,-838,1058,-670
1023,5.71,-0.25,0.26,-81.1,-29.8,21.2,-885,1031,-677
1024,5.55,0.18,0.41,-58.7,-34.4,13.8,-887,1026,-682
1025,6.49,0.36,0.53,-34.8,-32.9,3.1,-917,973,-710
1026,6.63,0.76,-0.21,-15.8,-25.0,-13.5,-900,966,-707
1027,7.01,0.86,-0.38,-7.8,-13.8,-26.4,-925,971,-722
1028,7.75,1.29,-0.34,-11.3,-1.8,-31.3,-905,963,-738
1029,8.44,1.77,-0.33,-16.6,0.2,-23.8,-902,957,-746
1030,9.44,2.14,-0.36,-14.5,-7.5,-18.9,-897,947,-758
1031,10.01,1.34,-0.75,-0.9,-4.6,-21.8,-890,947,-758
1032,10.72,0.55,-1.33,24.9,1.5,-33.4,-880,947,-766
1033,11.86,0.41,-1.72,57.8,6.2,-34.8,-848,957,-758
1034,13.52,0.38,-1.36,97.1,8.9,-39.8,-808,978,-763
1035,14.66,0.43,0.74,125.3,11.4,-47.2,-783,998,-751
1036,14.89,-0.24,2.44,132.1,10.7,-54.5,-740,1036,-746
1037,14.82,-0.91,3.37,117.6,1.4,-47.8,-672,1051,-743
1038,14.22,-0.57,3.18,100.9,-12.9,-39.4,-616,1056,-743
1039,13.30,-0.37,2.32,91.9,-25.3,-37.9,-598,1071,-753
1040,12.78,0.16,1.62,94.5,-32.8,-32.2,-556,1068,-766
1041,11.87,0.66,1.24,108.4,-35.8,-13.5,-520,1071,-766
1042,11.11,0.34,0.95,124.3,-32.5,5.9,-490,1066,-771
1043,10.15,0.22,0.38,144.5,-15.8,13.1,-465,1081,-786
1044,9.36,-0.88,0.09,165.8,4.0,1.4,-440,1068,-778
1045,8.11,-2.08,0.26,177.0,14.5,-23.5,-383,1081,-773
1046,7.32,-2.03,0.77,183.6,17.2,-40.2,-326,1098,-761
1047,6.41,-1.65,0.99,176.5,9.5,-38.8,-270,1093,-766
1048,5.51,-1.13,1.37,161.2,-1.4,-35.5,-208,1101,-751
1049,5.10,-1.07,1.65,137.5,-14.9,-30.1,-148,1093,-751
1050,5.59,-0.80,1.90,106.4,-30.3,-15.1,-111,1093,-743
1051,5.97,-0.33,1.63,81.0,-41.1,8.7,-105,1066,-763
1052,6.05,-0.68,1.83,62.3,-34.4,36.4,-90,1038,-788
1053,7.08,-0.38,1.85,50.5,-12.0,74.8,-92,1043,-801
1054,7.49,-1.45,2.02,40.8,8.5,105.1,-141,1016,-812
1055,7.88,-2.99,1.84,29.3,27.4,103.5,-191,1036,-803
1056,11.66,-6.70,1.70,-3.0,27.2,101.4,-222,1051,-803
1057,9.23,-5.28,1.60,-25.3,46.7,114.0,-260,1046,-793
1058,11.21,-4.68,2.89,-30.4,50.0,78.8,-346,1058,-788
1059,11.82,-6.00,1.62,-21.6,43.4,10.9,-358,1068,-763
1060,12.29,-7.58,0.78,-13.2,30.2,-4.8,-361,1083,-763
1061,12.96,-6.53,-0.29,-1.9,27.7,26.3,-366,1093,-738
1062,12.70,-3.25,1.20,-1.1,56.7,54.8,-386,1093,-743
1063,12.96,-1.63,2.83,-31.8,90.2,70.5,-423,1126,-710
1064,12.43,-2.03,4.23,-83.2,98.2,71.4,-460,1148,-667
1065,13.64,-2.53,5.46,-153.3,65.6,53.8,-527,1148,-633
1066,13.71,-3.06,5.26,-204.3,6.4,38.9,-576,1143,-628
1067,12.87,-2.78,3.67,-224.0,-36.7,35.0,-677,1106,-655
1068,10.50,-1.66,1.33,-221.7,-59.8,32.0,-808,988,-707
1069,9.47,-1.30,0.46,-217.2,-47.7,8.4,-865,932,-725
1070,8.52,-1.11,0.11,-222.2,-42.7,-19.0,-922,877,-771
1071,7.47,-0.40,-0.50,-225.5,-43.3,-26.9,-942,802,-806
1072,6.11,-0.34,-1.12,-220.2,-34.4,-14.5,-978,730,-822
1073,6.05,-0.99,-1.37,-210.9,-30.5,-1.0,-986,665,-865
1074,5.28,-0.63,-0.56,-197.9,-28.0,-9.8,-1018,608,-882
1075,5.92,-0.63,-0.60,-184.1,-33.9,-31.6,-1026,541,-923
1076,6.39,-0.48,-0.80,-170.9,-15.5,-28.9,-1021,488,-951
1077,7.65,-0.70,-1.40,-156.4,12.5,-5.1,-1026,451,-958
1078,8.33,-0.82,-1.61,-134.9,45.9,20.3,-1031,421,-971
1079,8.06,-1.09,-1.61,-105.2,71.1,21.0,-1043,416,-956
1080,8.02,-1.75,-1.34,-71.2,81.3,2.4,-1048,421,-948
1081,8.31,-1.77,-1.32,-45.2,77.7,-22.9,-1038,423,-958
1082,8.71,-1.47,-1.11,-23.1,73.7,-32.4,-1036,458,-956
1083,9.27,-1.00,-0.81,-2.1,66.4,-29.4,-1021,491,-946
1084,10.19,-0.36,-1.12,25.0,53.6,-24.1,-1008,503,-951
1085,10.70,-0.64,-1.95,52.7,44.4,-29.7,-986,541,-933
1086,11.06,-1.11,-2.51,76.6,43.1,-31.3,-971,568,-933
1087,11.45,-0.99,-3.31,107.2,36.4,-26.0,-955,606,-928
1088,12.59,-0.80,-3.72,148.4,23.9,-18.6,-930,652,-906
1089,13.75,-0.71,-2.58,181.2,16.9,-9.5,-887,702,-882
1090,14.05,-0.81,-0.91,190.7,11.7,-2.6,-877,732,-887
1091,14.03,-1.18,-0.26,174.2,8.7,6.4,-858,770,-877
1092,13.63,-1.44,-0.19,139.0,2.4,12.4,-823,810,-857
1093,13.29,-1.62,-0.23,95.7,-7.3,13.0,-826,825,-847
1094,12.83,-1.37,-0.00,61.6,-12.4,8.6,-798,830,-850
1095,12.28,-1.11,0.16,46.0,-18.1,7.3,-781,837,-847
1096,11.58,-1.09,0.34,44.6,-22.3,9.1,-786,832,-845
1097,10.44,-1.42,0.28,48.8,-22.2,11.6,-776,837,-850
1098,9.32,-1.71,0.11,53.8,-14.7,12.9,-761,837,-845
1099,8.12,-2.02,0.13,56.9,-2.1,16.2,-768,852,-845
1100,6.89,-2.28,0.24,58.1,8.5,15.7,-761,852,-847
1101,6.04,-2.64,0.55,56.3,10.7,10.2,-771,870,-827
1102,5.54,-2.73,0.82,50.3,9.9,7.9,-750,882,-820
1103,5.22,-2.77,0.79,41.0,14.4,4.7,-752,887,-827
1104,4.98,-2.93,0.77,29.7,17.9,-5.5,-747,907,-806
1105,5.12,-3.35,0.60,18.8,15.1,-19.6,-730,892,-817
1106,5.68,-3.88,0.05,7.4,5.6,-25.8,-715,922,-796
1107,6.45,-4.10,-0.55,1.2,-7.1,-20.8,-700,942,-808
1108,6.79,-4.50,-1.42,-2.5,-14.1,-10.1,-705,905,-822
1109,7.22,-4.92,-1.78,-4.4,-13.3,-3.6,-690,905,-832
1110,7.98,-4.94,-1.40,-3.0,-3.4,-7.5,-690,892,-827
1111,9.04,-4.57,-0.30,-2.4,19.2,-18.6,-672,915,-827
1112,9.83,-5.01,-0.58,-11.3,55.9,-34.6,-677,915,-822
1113,11.13,-5.61,-1.31,-11.1,72.0,-35.0,-660,932,-817
1114,12.56,-5.89,-2.45,7.7,57.2,-5.0,-650,963,-793
1115,13.53,-4.94,-1.11,24.4,44.2,24.5,-670,988,-778
1116,13.87,-2.48,3.07,6.1,57.6,29.2,-647,993,-751
1117,11.67,-2.13,5.99,-117.9,53.8,3.1,-700,1023,-715
1118,12.54,-1.90,4.57,-160.3,31.3,-25.8,-732,1023,-710
1119,13.36,-1.70,3.46,-172.5,1.9,-51.3,-747,991,-746
1120,13.63,-1.37,2.77,-174.8,-28.8,-52.5,-763,966,-766
1121,12.82,-1.01,2.89,-174.1,-54.4,-38.3,-778,927,-771
1122,11.75,-0.86,2.89,-170.6,-65.8,-23.3,-811,872,-817
1123,10.92,-0.80,2.41,-161.5,-57.7,-17.3,-828,840,-835
1124,10.21,-0.47,1.81,-152.4,-32.5,-24.3,-838,775,-880
1125,9.44,0.00,1.22,-142.9,-4.0,-33.1,-853,747,-887
1126,8.56,0.31,0.76,-132.9,18.7,-27.6,-867,722,-896
1127,7.34,0.46,0.40,-121.9,32.4,-9.5,-870,700,-898
1128,5.82,0.62,-0.20,-108.2,35.3,-2.5,-885,685,-906
1129,5.26,0.73,-0.35,-95.2,24.8,-7.4,-882,682,-903
1130,5.44,0.88,-0.23,-88.9,3.5,-11.9,-897,677,-916
1131,6.09,1.07,-0.06,-87.1,-15.3,-10.7,-892,647,-906
1132,6.67,0.96,-0.01,-82.4,-19.9,-10.9,-895,628,-933
1133,7.16,0.43,0.01,-71.2,-16.0,-14.4,-900,591,-948
1134,7.65,-0.19,0.01,-55.2,-8.9,-16.6,-892,588,-956
1135,8.31,-0.33,0.22,-33.8,-4.3,-14.8,-887,583,-966
1136,9.16,-0.26,0.06,-9.1,2.6,-12.8,-890,563,-980
1137,9.81,-0.12,-0.40,13.6,12.0,-10.3,-900,556,-966
1138,9.89,0.19,-1.07,40.0,19.5,-8.4,-880,578,-966
1139,10.00,0.55,-1.94,72.8,24.1,-7.3,-877,583,-980
1140,10.53,0.66,-2.71,111.6,28.6,-9.4,-853,621,-958
1141,11.75,0.68,-1.85,142.4,26.0,-4.6,-838,655,-938
1142,13.24,0.57,0.93,153.0,12.3,14.6,-821,690,-913
1143,13.78,-0.26,2.37,154.1,-1.3,24.7,-811,725,-911
1144,13.68,-1.06,2.65,149.3,-3.8,14.8,-808,737,-906
1145,13.55,-1.26,2.31,140.8,5.2,1.2,-791,777,-887
1146,13.62,-0.82,1.92,126.0,10.7,-2.6,-756,787,-885
1147,13.35,-0.32,0.87,111.0,8.3,3.8,-745,820,-870
1148,13.31,-0.10,-0.45,110.5,5.0,8.8,-707,817,-867
1149,13.75,0.38,-0.76,118.1,3.6,9.5,-712,862,-857
1150,13.23,0.54,-0.36,126.7,5.3,14.2,-677,880,-840
1151,11.90,0.11,-0.83,126.4,14.3,14.1,-667,887,-840
1152,10.43,-0.16,-0.78,125.1,16.7,21.3,-655,917,-832
1153,8.73,-0.71,-0.33,119.1,15.1,33.5,-633,937,-812
1154,7.23,-1.04,0.30,113.0,14.1,40.3,-633,957,-798
1155,5.93,-1.21,0.97,104.7,13.8,44.3,-623,971,-763
1156,5.30,-1.40,1.27,93.2,14.7,44.7,-631,991,-763
1157,5.11,-1.56,1.55,77.5,14.1,36.8,-608,991,-746
1158,5.09,-1.57,1.70,61.2,10.9,26.2,-603,1008,-738
1159,5.20,-1.69,1.78,45.4,5.9,17.2,-601,1011,-722
1160,5.63,-2.26,1.69,26.3,-4.4,8.6,-598,1011,-731
1161,6.21,-2.87,1.18,5.5,-15.3,1.5,-593,1016,-722
1162,6.74,-3.41,0.36,-11.4,-22.1,-3.6,-591,1008,-725
1163,7.53,-4.04,-0.35,-17.3,-24.7,-7.1,-591,993,-741
1164,8.87,-4.28,-0.57,-15.1,-21.2,-8.7,-598,986,-766
1165,10.30,-4.00,0.12,-7.1,-6.6,-5.4,-596,978,-768
1166,11.88,-4.90,-1.37,8.0,46.1,5.6,-601,983,-756
1167,12.07,-5.38,-3.11,19.5,27.9,35.8,-593,1008,-736
1168,13.75,-3.31,-2.00,39.4,16.7,44.8,-613,1013,-722
1169,13.90,-1.00,2.39,48.5,29.6,34.9,-606,1026,-702
1170,13.37,0.29,5.74,8.8,66.0,20.8,-611,1031,-682
1171,11.48,-0.13,7.39,-53.2,58.9,31.2,-606,1058,-657
1172,10.18,-0.96,5.76,-109.2,40.2,18.4,-631,1073,-638
1173,10.98,-1.39,4.09,-122.3,13.7,-33.7,-687,1056,-636
1174,11.82,-1.02,2.82,-123.9,-16.6,-67.2,-695,1041,-652
1175,12.57,-0.24,2.85,-129.5,-38.8,-70.6,-682,1026,-680
1176,11.92,-0.42,2.79,-138.5,-46.7,-48.7,-692,993,-692
1177,10.93,-1.38,2.33,-139.4,-43.1,-28.2,-720,963,-733
1178,10.40,-1.91,1.66,-131.7,-33.7,-18.0,-717,927,-751
1179,9.77,-1.95,0.75,-116.7,-23.1,-14.1,-752,897,-763
1180,8.95,-1.63,0.12,-99.9,-13.4,-10.3,-761,875,-796
1181,8.10,-1.21,-0.23,-85.5,-4.2,-5.8,-781,862,-781
1182,6.79,-1.01,-0.37,-75.9,4.3,-2.4,-786,852,-793
1183,5.74,-0.77,-0.33,-66.6,5.9,-5.0,-798,847,-793
1184,5.50,-0.83,0.01,-62.6,-3.1,-10.2,-808,817,-806
1185,5.67,-0.72,0.15,-65.3,-14.0,-11.5,-808,810,-808
1186,5.88,-0.41,-0.07,-69.5,-20.6,-12.8,-803,795,-812
1187,6.44,-0.79,-0.17,-66.6,-25.7,-11.7,-826,785,-820
1188,7.14,-0.97,-0.38,-61.7,-27.2,-12.8,-816,737,-845
1189,8.04,-1.18,-0.58,-46.1,-24.3,-16.8,-811,730,-860
1190,8.76,-0.89,-1.00,-22.6,-20.5,-22.7,-818,725,-862
1191,9.49,0.07,-1.47,5.8,-10.5,-17.1,-806,722,-857
1192,9.75,-0.07,-1.28,44.7,-3.4,1.8,-803,720,-867
1193,9.71,-1.38,-1.56,68.8,1.0,6.6,-796,735,-862
1194,10.89,-1.48,-1.65,97.8,-1.7,14.0,-803,737,-865
1195,12.04,-2.29,-1.40,110.6,-3.2,23.7,-786,767,-847
1196,14.03,-2.33,0.52,91.5,-3.8,33.4,-771,785,-842
1197,14.59,-1.68,1.45,92.4,-5.9,37.5,-786,802,-830
1198,14.57,-2.27,1.52,99.3,-6.2,21.5,-783,815,-820
1199,14.24,-2.16,1.13,98.1,-5.6,10.3,-773,815,-812
1200,13.61,-1.42,0.39,78.9,-11.8,12.3,-761,837,-812
1201,12.98,-1.11,-0.82,59.5,-14.7,13.9,-750,852,-806
1202,12.87,-0.69,-1.13,59.6,-19.6,13.9,-730,840,-806
1203,13.18,-0.35,-1.03,70.5,-24.3,15.4,-725,850,-796
1204,12.26,-0.35,-0.61,85.6,-24.4,17.2,-717,862,-801
1205,11.01,-0.89,-0.93,94.7,-11.7,9.5,-707,872,-801
1206,9.40,-1.09,-0.86,97.9,-2.7,7.5,-675,895,-793
1207,7.89,-1.61,-0.96,96.8,0.6,14.0,-677,905,-812
1208,6.68,-1.75,-0.59,94.9,1.8,17.7,-660,912,-786
1209,5.80,-1.87,-0.17,90.4,3.3,22.1,-650,932,-778
1210,5.26,-1.93,0.25,83.9,4.4,22.8,-621,950,-761
1211,5.12,-2.09,0.47,76.0,5.8,19.5,-623,960,-763
1212,5.51,-2.28,0.76,65.2,4.6,15.9,-601,973,-751
1213,5.51,-2.61,0.81,50.0,4.0,13.9,-606,976,-741
1214,5.37,-3.21,0.54,30.0,-1.7,12.6,-606,986,-751
1215,6.19,-4.39,-0.84,-2.1,-16.6,-2.0,-596,998,-746
1216,6.96,-4.83,-1.17,-6.1,-16.7,-5.7,-576,998,-741
1217,7.69,-5.07,-0.63,-2.0,-3.8,-6.9,-573,1003,-748
1218,9.05,-5.47,-0.74,8.7,26.8,-13.7,-578,996,-751
1219,11.18,-5.63,-1.39,25.2,61.6,-29.3,-563,1026,-731
1220,12.23,-6.57,-3.15,31.1,62.7,-10.2,-537,1061,-692
1221,13.21,-6.71,-3.08,42.6,41.6,22.9,-512,1086,-655
1222,13.88,-4.14,1.60,51.7,40.1,34.3,-515,1123,-650
1223,13.57,-1.72,5.28,15.1,81.1,14.5,-505,1161,-606
1224,11.93,-2.00,8.23,-46.5,66.9,16.8,-520,1198,-568
1225,11.33,-2.33,7.40,-109.4,41.8,-2.1,-537,1226,-545
1226,11.34,-2.62,6.13,-133.9,13.6,-38.5,-566,1236,-535
1227,12.15,-1.96,4.64,-143.5,-9.5,-55.4,-603,1226,-535
1228,12.10,-1.19,4.04,-151.4,-23.4,-46.1,-638,1221,-552
1229,11.21,-1.20,3.27,-155.7,-25.6,-33.5,-667,1206,-578
1230,10.42,-1.45,2.09,-151.1,-14.4,-37.4,-722,1181,-581
1231,9.76,-1.60,0.85,-138.5,-0.5,-45.6,-756,1161,-598
1232,9.20,-1.68,0.01,-122.3,12.0,-40.7,-786,1146,-603
1233,8.24,-1.42,-0.25,-106.5,19.4,-26.6,-806,1138,-598
1234,7.38,-1.06,-0.17,-92.7,22.9,-13.9,-846,1141,-606
1235,6.40,-0.84,0.05,-80.8,21.9,-10.8,-875,1131,-608
1236,5.94,-0.88,0.35,-74.6,16.5,-17.2,-905,1123,-608
1237,6.05,-0.76,0.69,-76.0,4.5,-23.4,-920,1126,-613
1238,6.48,-0.72,0.72,-80.9,-4.6,-22.0,-955,1111,-618
1239,6.80,-0.63,0.51,-83.1,-8.9,-16.8,-971,1093,-631
1240,7.17,-0.73,0.24,-77.4,-9.3,-15.7,-1011,1066,-631
1241,7.61,-0.83,-0.16,-64.3,-7.9,-20.2,-1013,1038,-650
1242,8.43,-0.93,-0.40,-47.7,-6.8,-24.3,-1031,1028,-633
1243,9.16,-1.17,-0.63,-27.8,-3.5,-26.4,-1036,1023,-662
1244,9.94,-1.14,-0.55,-3.6,3.7,-25.3,-1053,1011,-655
1245,10.53,-1.10,-0.56,27.9,10.3,-20.7,-1036,1021,-657
1246,11.07,-1.29,-0.68,62.1,10.9,-18.4,-1033,1033,-657
1247,11.23,-1.49,-1.07,93.7,8.7,-20.4,-1018,1043,-650
1248,12.12,-1.31,-0.79,112.8,4.0,-14.1,-983,1091,-623
1249,13.32,-0.98,1.03,114.7,-7.7,3.4,-960,1118,-606
1250,13.63,-0.97,2.88,103.2,-14.8,18.4,-940,1138,-593
1251,13.02,-1.65,3.10,92.1,-13.4,13.1,-930,1156,-598
1252,12.14,-2.22,2.37,88.7,-8.8,-2.4,-915,1176,-578
1253,12.20,-1.95,1.75,78.5,-7.0,1.2,-907,1193,-571
1254,12.79,-1.54,0.73,64.8,-7.5,17.8,-885,1201,-578
1255,13.60,-0.97,-0.12,65.8,-9.8,24.5,-877,1208,-573
1256,13.69,-0.61,-0.46,75.5,-10.7,23.0,-885,1238,-555
1257,13.08,-0.50,-0.22,80.8,-8.7,20.2,-877,1251,-568
1258,11.85,-0.67,-0.38,80.9,-4.5,16.1,-853,1263,-557
1259,10.19,-1.02,-0.54,78.0,-4.7,21.6,-861,1285,-537
1260,8.78,-1.36,-0.54,76.5,-4.3,28.8,-833,1305,-552
1261,7.46,-1.53,-0.14,76.8,-4.5,36.5,-833,1322,-550
1262,6.30,-1.58,0.35,73.9,-2.4,42.2,-823,1337,-545
1263,5.56,-1.59,0.78,66.2,2.2,43.2,-831,1345,-527
1264,4.91,-1.62,1.44,44.4,6.5,28.1,-821,1395,-507
1265,4.74,-1.83,1.48,28.9,1.2,19.4,-841,1400,-487
1266,5.10,-2.21,1.24,13.0,-6.1,12.4,-848,1397,-476
1267,5.60,-2.81,0.63,-0.5,-8.5,8.6,-836,1392,-471
1268,6.11,-3.36,-0.06,-6.9,-7.0,3.5,-846,1392,-473
1269,6.76,-4.04,-0.52,-4.3,2.2,-5.9,-858,1385,-471
1270,7.89,-4.46,-0.57,3.5,16.5,-17.3,-867,1380,-461
1271,9.14,-4.70,0.26,10.0,35.8,-20.0,-833,1395,-423
1272,10.67,-5.31,0.32,11.6,66.9,-28.3,-853,1377,-406
1273,12.09,-6.14,-0.34,18.9,72.6,-16.2,-831,1382,-367
1274,12.89,-6.89,-1.46,27.7,50.6,17.4,-836,1402,-325
1275,13.45,-5.65,-0.46,40.9,31.3,44.7,-828,1412,-291
1276,13.50,-3.03,3.08,47.1,38.6,45.7,-848,1405,-276
1277,12.91,-0.71,6.57,8.9,57.8,38.1,-870,1405,-240
1278,10.86,-0.74,7.98,-55.7,47.2,34.6,-877,1390,-215
1279,9.88,-1.78,7.17,-115.9,34.5,3.4,-930,1365,-205
1280,10.85,-2.20,5.54,-136.7,14.3,-48.9,-1006,1320,-232
1281,11.58,-1.93,3.43,-140.6,-13.4,-69.0,-1028,1261,-278
1282,12.61,-0.58,3.42,-146.3,-26.4,-69.2,-1056,1191,-345
1283,11.76,-0.64,3.06,-151.1,-32.5,-49.2,-1071,1128,-397
1284,10.99,-1.15,2.14,-140.3,-27.1,-37.5,-1085,1066,-468
1285,10.12,-1.44,1.13,-120.1,-18.3,-33.6,-1117,1013,-500
1286,9.24,-1.41,0.35,-101.4,-11.7,-26.5,-1097,960,-545
1287,8.32,-1.15,0.09,-85.2,-7.6,-16.7,-1097,917,-593
1288,7.54,-0.92,0.10,-71.9,-6.7,-6.8,-1110,897,-616
1289,6.79,-0.86,0.29,-61.9,-6.5,-2.4,-1097,865,-631
1290,6.14,-0.67,0.37,-56.1,-0.6,-4.6,-1095,832,-655
1291,5.68,-0.57,0.59,-54.4,3.3,-12.8,-1068,812,-646
1292,5.72,-0.42,0.76,-51.7,2.8,-20.5,-1056,797,-675
1293,5.95,-0.51,0.59,-47.9,1.5,-26.2,-1056,782,-695
1294,6.25,-0.63,0.43,-39.3,1.1,-29.0,-1043,802,-715
1295,6.93,-0.76,0.22,-24.7,3.4,-30.3,-1021,767,-710
1296,7.88,-1.10,-0.08,-6.8,8.2,-34.3,-998,780,-727
1297,8.80,-1.44,-0.17,10.4,13.9,-38.8,-971,775,-731
1298,9.68,-1.72,-0.13,24.8,17.5,-38.9,-947,792,-736
1299,10.46,-1.88,-0.16,41.4,19.2,-35.2,-925,812,-746
1300,11.10,-2.17,-0.25,61.3,14.9,-33.1,-877,827,-725
1301,12.32,-2.66,-0.75,78.8,9.8,-29.9,-846,842,-743
1302,13.38,-2.54,-0.97,91.6,2.1,-19.1,-808,872,-746
1303,14.58,-1.40,0.29,92.2,-7.2,6.5,-783,882,-731
1304,14.74,-0.88,1.99,81.6,-16.4,27.4,-763,902,-751
1305,13.83,-1.47,2.92,67.5,-23.4,20.9,-758,905,-746
1306,12.65,-2.07,2.84,54.9,-31.8,8.8,-727,897,-738
1307,12.43,-2.00,1.64,37.5,-35.0,14.3,-740,907,-753
1308,13.95,-1.11,0.34,20.7,-30.7,27.2,-725,902,-761
1309,14.70,-0.14,-0.49,16.6,-23.5,29.3,-722,890,-783
1310,13.92,0.39,-0.59,22.6,-18.1,23.7,-740,880,-796
1311,12.35,0.43,-0.40,28.7,-20.1,23.2,-732,877,-801
1312,10.72,0.02,-0.47,35.1,-23.9,25.5,-747,880,-801
1313,7.94,-0.52,-0.40,48.8,-18.7,29.8,-745,877,-803
1314,6.74,-0.76,-0.18,53.1,-14.2,34.0,-747,877,-793
1315,5.84,-0.82,0.08,56.1,-8.7,35.5,-735,885,-801
1316,5.17,-0.79,0.33,57.0,-1.8,33.4,-742,880,-788
1317,4.91,-0.93,0.53,54.2,2.6,27.3,-735,892,-793
1318,5.00,-1.23,0.74,47.7,2.3,18.1,-747,912,-788
1319,5.39,-1.66,0.82,37.8,-3.5,8.9,-745,905,-791
1320,5.69,-2.22,0.34,26.7,-7.9,2.8,-720,917,-786
1321,6.39,-2.88,-0.23,16.5,-12.8,-0.9,-750,910,-791
1322,6.98,-3.65,-1.02,7.5,-16.1,-3.1,-720,915,-788
1323,7.78,-4.19,-1.29,4.2,-14.5,-6.1,-722,902,-812
1324,8.42,-4.70,-1.25,4.0,-2.5,-5.1,-717,905,-801
1325,9.19,-5.09,-0.55,2.7,18.2,0.6,-705,907,-806
1326,10.16,-5.73,-0.77,5.7,49.9,-6.0,-727,920,-812
1327,11.10,-6.25,-1.74,19.5,59.4,1.1,-707,930,-786
1328,11.72,-6.67,-2.85,35.3,36.7,31.6,-695,945,-771
1329,12.44,-5.46,-1.70,46.3,20.6,50.8,-697,963,-751
1330,13.05,-2.61,2.10,37.5,26.9,49.6,-715,993,-741
1331,12.63,-0.95,5.19,-14.2,48.2,41.7,-732,998,-720
1332,10.89,-1.44,6.57,-74.1,46.9,33.0,-761,988,-715
1333,10.78,-2.17,5.97,-122.9,45.8,-3.2,-781,991,-700
1334,11.45,-2.56,4.52,-138.6,33.8,-44.2,-791,981,-685
1335,12.17,-1.99,2.62,-139.1,12.6,-57.2,-813,978,-707
1336,12.73,-0.88,2.52,-140.4,-3.6,-50.6,-831,957,-733
1337,11.60,-0.69,2.33,-140.5,-10.4,-33.0,-838,935,-743
1338,10.51,-0.76,1.69,-127.1,-4.1,-27.3,-836,902,-771
1339,9.51,-0.91,0.93,-106.2,8.7,-31.6,-867,872,-781
1340,8.76,-0.96,0.49,-88.5,18.0,-36.0,-880,862,-806
1341,8.10,-1.05,0.24,-76.6,22.9,-31.1,-865,835,-786
1342,7.37,-0.95,0.16,-67.3,25.1,-23.6,-890,850,-801
1343,6.52,-0.93,-0.13,-60.4,29.5,-23.6,-880,852,-796
1344,6.29,-0.90,0.17,-56.9,29.1,-26.6,-882,847,-798
1345,6.16,-0.91,0.25,-56.4,24.8,-27.8,-872,845,-812
1346,6.34,-0.98,0.46,-56.1,16.9,-23.9,-872,847,-801
1347,6.68,-1.05,0.54,-52.1,9.7,-19.7,-875,840,-806
1348,7.17,-1.12,0.48,-44.0,7.3,-20.6,-867,842,-812
1349,7.81,-1.21,0.36,-32.5,6.9,-23.4,-872,830,-820
1350,8.41,-1.36,0.29,-19.6,7.4,-24.3,-858,845,-817
1351,9.14,-1.20,0.30,-5.8,7.3,-24.5,-861,830,-837
1352,10.27,-0.93,0.38,11.0,8.2,-24.5,-838,847,-842
1353,11.25,-0.97,0.23,33.9,6.6,-23.6,-828,845,-840
1354,11.80,-1.49,-0.47,62.0,7.4,-24.5,-813,845,-837
1355,12.31,-1.71,-0.74,89.2,9.7,-20.5,-791,875,-840
1356,13.06,-1.37,0.04,105.9,6.7,-5.3,-761,887,-820
1357,13.71,-0.67,1.51,104.5,-1.3,15.5,-740,912,-812
1358,13.76,-0.97,2.17,98.8,-9.9,17.2,-730,925,-822
1359,13.19,-1.31,2.00,87.0,-14.0,9.7,-710,927,-808
1360,12.57,-1.22,1.14,65.6,-21.2,15.6,-707,932,-812
1361,12.85,-0.67,0.17,32.9,-28.0,27.2,-715,925,-820
1362,13.54,-0.11,0.11,10.7,-28.3,11.1,-707,912,-845
1363,13.25,-0.34,0.19,20.3,-19.6,1.1,-720,890,-850
1364,12.41,-0.25,0.27,29.5,-10.3,0.5,-705,900,-850
1365,10.54,-0.40,0.19,30.0,-8.8,7.3,-705,887,-847
1366,8.88,-0.64,-0.16,27.4,-10.1,14.9,-705,895,-850
1367,7.33,-0.80,-0.13,26.0,-11.5,19.3,-717,892,-857
1368,6.02,-0.81,-0.03,25.5,-11.2,21.1,-710,897,-847
1369,5.11,-0.77,0.03,24.0,-8.4,22.3,-722,885,-847
1370,4.57,-0.69,0.12,23.3,-3.2,21.9,-722,885,-847
1371,4.34,-0.68,0.23,23.3,1.6,16.7,-725,897,-825
1372,4.55,-0.79,0.40,23.3,4.0,11.9,-727,892,-827
1373,5.16,-1.07,0.45,21.2,2.8,8.8,-730,892,-830
1374,5.89,-1.28,-0.16,17.0,0.3,6.1,-722,900,-835
1375,6.97,-1.75,-1.29,12.4,-4.6,1.7,-717,895,-837
1376,7.86,-2.43,-2.30,17.6,-10.7,-0.0,-727,905,-832
1377,9.06,-3.53,-3.14,33.0,-8.2,2.6,-722,902,-832
1378,9.97,-3.91,-2.50,49.0,-1.1,11.5,-715,885,-835
1379,10.56,-3.72,-1.21,58.6,17.9,18.4,-712,922,-830
1380,11.22,-3.91,-1.16,59.8,46.6,14.7,-705,930,-812
1381,11.41,-4.76,-2.33,57.7,50.3,23.8,-690,963,-788
1382,11.56,-5.56,-3.89,53.1,25.8,45.2,-700,976,-771
1383,13.09,-3.55,-1.79,64.9,0.8,55.7,-707,971,-768
1384,13.85,-0.35,2.57,60.5,29.8,37.5,-712,986,-748
1385,13.12,0.81,5.86,13.3,64.7,7.1,-715,1013,-731
1386,11.31,-0.84,6.88,-48.5,59.6,2.2,-720,1043,-710
1387,11.09,-1.48,5.68,-92.1,46.1,-18.3,-727,1033,-695
1388,11.51,-1.85,4.25,-101.6,27.5,-43.8,-745,1038,-677
1389,12.36,-1.32,3.37,-99.2,5.3,-49.4,-766,1018,-685
1390,12.29,-0.82,3.15,-95.3,-12.8,-37.7,-763,1011,-705
1391,11.68,-0.91,2.81,-85.1,-19.9,-28.4,-761,991,-717
1392,11.09,-1.02,2.18,-68.0,-14.6,-29.8,-776,983,-736
1393,10.55,-1.00,1.48,-52.5,-5.2,-30.0,-781,950,-751
1394,9.90,-1.07,1.06,-38.7,1.6,-23.4,-761,952,-748
1395,8.86,-1.09,0.57,-27.4,4.4,-12.8,-771,950,-761
1396,7.78,-1.05,0.23,-18.7,4.1,-5.1,-771,960,-763
1397,6.79,-0.88,0.05,-13.5,1.8,-4.1,-771,947,-766
1398,6.16,-0.92,0.24,-11.7,-2.1,-0.2,-773,942,-766
1399,6.04,-1.24,0.57,-16.0,-9.2,3.8,-781,937,-758
1400,6.16,-1.00,0.91,-20.7,-12.4,4.7,-781,922,-776
1401,6.20,-0.96,0.70,-23.2,-9.5,-0.8,-778,920,-773
1402,6.40,-0.89,0.40,-19.6,-7.1,-8.3,-796,907,-766
1403,7.00,-0.92,0.01,-9.3,-9.9,-8.8,-778,917,-768
1404,7.83,-0.97,-0.02,7.7,-10.7,-7.4,-786,895,-793
1405,8.56,-1.16,-0.09,28.1,-0.5,-15.9,-771,915,-788
1406,9.45,-1.40,0.38,47.2,9.3,-29.5,-763,910,-788
1407,10.63,-1.92,0.97,60.6,12.9,-37.0,-745,912,-776
1408,12.04,-2.61,0.94,68.0,14.7,-45.0,-690,930,-781
1409,12.54,-2.90,-0.31,77.8,25.3,-51.5,-665,973,-783
1410,12.72,-2.93,-1.58,98.8,29.8,-49.3,-641,993,-768
1411,13.78,-1.29,1.43,90.9,-21.6,17.5,-543,1031,-758
1412,13.15,-2.00,2.33,76.8,-29.9,14.0,-530,1011,-758
1413,12.86,-2.09,2.64,64.8,-28.5,1.5,-530,1016,-773
1414,12.98,-1.34,2.37,37.5,-32.9,5.7,-512,998,-788
1415,12.99,-0.64,1.43,8.6,-41.7,17.3,-512,1001,-796
1416,13.02,-0.03,0.74,2.2,-45.3,20.5,-515,993,-798
1417,12.52,0.49,0.36,16.3,-40.4,25.1,-520,942,-815
1418,11.87,0.88,0.31,39.9,-29.0,32.6,-541,955,-825
1419,10.90,1.03,0.32,63.7,-15.8,35.1,-543,945,-835
1420,9.87,0.83,0.10,76.4,-4.3,30.8,-548,945,-822
1421,12.62,-1.01,3.05,97.4,2.0,-25.2,-601,887,-847
1422,12.53,-0.77,1.88,95.3,3.6,-9.6,-566,882,-850
1423,12.94,-0.86,-0.03,111.1,9.7,0.9,-571,902,-847
1424,13.12,-0.72,-0.85,133.0,15.3,5.1,-515,905,-832
1425,13.03,-0.64,-1.69,143.8,27.0,0.9,-497,930,-835
1426,11.95,-1.12,-2.18,141.2,31.1,8.7,-477,940,-825
1427,10.57,-1.53,-1.78,136.0,26.0,23.5,-447,981,-786
1428,8.41,-1.94,-0.52,129.6,13.2,42.9,-435,998,-791
1429,6.67,-1.87,0.57,118.3,7.0,51.6,-423,1003,-781
1430,5.44,-1.65,1.27,103.7,4.0,51.5,-432,1003,-771
1431,4.80,-1.50,1.65,87.7,2.2,45.2,-413,1008,-773
1432,4.77,-1.40,2.05,71.5,-2.8,35.0,-413,1018,-768
1433,4.86,-1.86,2.23,52.7,-14.3,26.8,-413,1006,-761
1434,5.25,-2.07,2.17,30.4,-27.2,25.9,-421,998,-778
1435,5.60,-2.44,1.90,9.2,-32.7,23.2,-426,988,-788
1436,5.92,-2.91,1.28,-11.4,-32.3,18.7,-437,981,-791
1437,6.51,-3.40,0.90,-28.4,-26.8,9.1,-442,963,-803
1438,7.16,-3.99,0.76,-39.6,-13.3,-1.8,-445,957,-801
1439,8.07,-4.85,0.47,-42.4,7.4,-12.7,-455,957,-820
1440,9.99,-5.65,-0.41,-31.3,36.0,-33.0,-465,957,-812
1441,12.28,-6.39,-1.84,-10.4,49.8,-31.9,-447,957,-803
1442,13.39,-6.58,-3.00,9.9,35.5,15.0,-442,973,-791
1443,13.53,-4.83,-1.31,26.8,32.3,49.4,-445,991,-793
1444,13.40,-1.58,3.56,23.7,61.7,34.2,-455,1011,-758
1445,13.11,0.19,7.28,-22.9,88.8,9.9,-465,1023,-722
1446,11.25,-1.02,8.75,-91.0,65.9,17.5,-485,1051,-702
1447,12.80,-0.74,6.90,-156.5,45.2,-15.5,-537,1063,-690
1448,13.22,-1.17,4.34,-180.2,8.7,-54.9,-553,1061,-675
1449,13.83,-0.47,2.34,-186.0,-19.9,-69.4,-573,1038,-700
1450,12.85,-0.09,2.20,-186.6,-43.5,-53.8,-586,1008,-717
1451,11.35,-0.47,2.03,-179.3,-55.1,-30.1,-613,966,-758
1452,10.24,-0.81,1.57,-161.7,-49.5,-16.9,-647,945,-768
1453,9.09,-1.04,0.88,-141.9,-31.1,-12.2,-665,902,-793
1454,8.17,-0.89,0.38,-121.1,-8.8,-11.9,-692,880,-808
1455,6.99,-0.60,0.14,-100.8,10.3,-13.4,-702,857,-812
1456,5.92,-0.35,-0.12,-85.6,26.1,-18.9,-715,850,-822
1457,5.46,-0.34,0.15,-76.1,30.1,-27.4,-710,850,-812
1458,5.63,-0.58,0.37,-76.2,22.7,-31.7,-715,835,-827
1459,6.13,-0.73,0.70,-84.5,8.4,-22.4,-717,847,-817
1460,6.39,-0.79,0.60,-93.7,-2.2,-12.4,-732,837,-817
1461,6.95,-0.72,0.42,-94.8,-7.1,-13.8,-735,820,-835
1462,7.85,-0.77,0.23,-89.9,-8.9,-21.9,-747,795,-840
1463,8.65,-0.73,-0.26,-80.8,-4.8,-29.6,-740,790,-845
1464,9.27,-0.49,-0.73,-62.9,-1.2,-27.8,-745,785,-857
1465,9.95,-0.23,-0.81,-36.2,-1.6,-20.8,-745,770,-870
1466,10.60,0.05,-1.05,-6.0,-1.9,-16.5,-740,765,-875
1467,11.29,0.15,-1.37,26.7,-1.2,-15.1,-720,757,-896
1468,11.85,-0.05,-2.01,67.2,-3.5,-16.8,-710,777,-872
1469,12.71,-0.03,-1.85,104.0,-9.5,-15.9,-697,780,-893
1470,14.35,0.66,2.04,115.3,-26.7,6.8,-660,792,-875
1471,14.69,0.65,3.77,105.3,-31.9,14.4,-647,792,-882
1472,13.96,0.03,3.80,90.9,-24.3,1.3,-636,797,-872
1473,12.88,-0.55,2.35,81.7,-13.1,-15.2,-611,802,-885
1474,12.83,0.05,0.45,70.3,-7.0,-4.5,-606,802,-885
1475,13.06,0.56,-1.52,58.7,-2.9,14.9,-596,792,-887
1476,13.64,1.25,-1.60,62.4,-5.1,19.6,-598,805,-880
1477,13.12,0.99,-1.29,65.7,-8.5,13.8,-583,822,-896
1478,11.78,0.45,-0.97,60.7,-14.0,10.4,-578,812,-893
1479,10.47,-0.12,-1.08,56.1,-13.4,9.8,-566,807,-887
1480,9.30,-0.46,-0.88,61.2,-1.6,7.3,-578,802,-887
1481,8.27,-1.05,-0.59,68.7,12.4,15.5,-571,815,-870
1482,7.02,-1.39,-0.17,72.0,23.0,29.6,-553,832,-872
1483,6.31,-1.73,0.13,70.9,30.2,37.8,-568,862,-857
1484,6.14,-1.78,0.66,64.4,33.2,40.0,-576,870,-835
1485,5.48,-1.73,1.11,50.2,25.3,40.7,-578,887,-820
1486,4.88,-1.57,1.28,33.5,17.5,39.0,-573,900,-812
1487,4.43,-1.32,1.15,15.5,14.1,31.0,-591,897,-827
1488,4.67,-1.44,0.92,-1.2,11.7,17.1,-613,910,-791
1489,5.62,-1.95,0.20,-14.0,8.9,1.4,-616,917,-788
1490,7.03,-2.62,-0.93,-13.5,12.0,-8.5,-613,902,-796
1491,8.58,-3.05,-1.86,-4.7,18.5,-13.6,-596,922,-798
1492,10.31,-3.51,-2.17,3.2,20.2,-14.6,-603,907,-788
1493,11.15,-4.01,-2.32,11.5,15.8,-8.0,-591,920,-788
1494,11.82,-4.45,-2.21,21.3,7.8,3.7,-591,930,-786
1495,12.32,-4.63,-2.09,34.5,0.7,19.1,-586,935,-776
1496,12.54,-4.26,-1.88,49.5,-8.5,41.5,-591,937,-761
1497,12.85,-2.28,-0.14,42.8,-16.7,53.8,-591,920,-766
1498,13.53,-2.33,-0.40,22.0,27.4,12.4,-598,920,-773
1499,13.50,-2.80,2.82,24.5,69.8,-19.8,-598,960,-741
1500,11.58,-2.28,4.26,-30.9,53.7,22.1,-603,978,-715
1501,12.29,-2.11,3.78,-61.4,23.0,25.3,-621,991,-712
1502,12.65,-1.19,3.96,-85.7,-10.4,9.1,-647,973,-715
1503,12.02,-1.53,3.61,-101.5,-36.0,-8.5,-660,955,-717
1504,11.06,-1.39,2.81,-104.0,-40.5,-25.8,-660,927,-746
1505,10.40,-0.89,2.34,-95.7,-29.2,-40.7,-682,885,-761
1506,9.97,-0.76,2.12,-82.4,-12.8,-49.4,-682,875,-791
1507,9.82,-1.08,1.93,-72.3,-0.7,-55.3,-670,875,-783
1508,9.60,-1.46,1.79,-64.5,8.4,-51.2,-670,857,-803
1509,8.93,-1.65,1.41,-56.3,16.3,-41.5,-650,852,-806
1510,8.09,-1.58,1.01,-46.0,24.9,-32.8,-638,872,-793
1511,7.29,-1.34,0.69,-32.8,32.2,-27.9,-650,867,-806
1512,6.65,-1.10,0.41,-19.6,35.0,-25.9,-638,880,-788
1513,6.20,-0.65,0.33,-9.4,37.5,-26.2,-616,892,-791
1514,5.97,-0.58,0.20,-5.3,44.6,-27.8,-616,917,-771
1515,6.22,-0.74,0.45,-7.5,46.1,-27.9,-601,925,-768
1516,6.54,-0.93,0.61,-13.6,34.9,-26.8,-593,930,-753
1517,6.77,-0.93,0.65,-19.3,17.8,-22.9,-601,940,-761
1518,6.81,-0.76,0.46,-24.4,6.0,-19.3,-583,955,-743
1519,7.92,-0.25,0.12,-11.7,-7.3,-14.1,-578,947,-753
1520,8.59,0.03,-0.38,6.0,-14.2,-15.0,-576,935,-763
1521,9.27,0.10,-0.63,25.5,-13.9,-19.0,-568,927,-758
1522,10.03,0.39,-0.40,46.1,-10.0,-25.3,-546,935,-771
1523,10.87,0.55,-0.29,69.3,-7.4,-30.9,-527,917,-788
1524,11.49,0.86,-1.03,93.1,-4.9,-30.5,-490,942,-778
1525,11.69,1.11,-0.93,115.5,-2.3,-22.4,-462,942,-771
1526,12.75,1.67,0.70,134.9,-10.5,-8.8,-432,942,-783
1527,13.29,1.82,2.25,144.5,-29.6,-6.6,-391,942,-771
1528,13.49,1.26,3.12,140.2,-40.2,-20.6,-366,920,-796
1529,13.59,1.31,3.60,122.9,-33.7,-29.4,-323,925,-803
1530,13.36,1.29,3.37,95.9,-15.2,-22.5,-282,915,-812
1531,13.21,0.91,2.81,67.2,3.5,-15.9,-270,907,-812
1532,13.02,1.15,2.38,48.2,3.5,-13.3,-257,917,-812
1533,12.56,1.09,1.59,44.0,-12.9,-4.6,-235,917,-803
1534,11.98,0.41,-0.20,51.3,-17.3,5.5,-222,902,-803
1535,11.40,0.23,-0.64,70.7,-10.9,13.8,-211,897,-817
1536,10.74,-1.09,-2.40,97.7,19.9,25.4,-208,877,-827
1537,10.18,-1.82,-1.38,130.8,55.6,36.4,-203,895,-817
1538,7.97,-1.54,-0.03,148.3,70.7,42.5,-186,902,-808
1539,6.33,-1.38,0.86,142.0,75.1,43.1,-181,935,-778
1540,5.64,-1.29,1.48,118.9,64.0,37.0,-168,952,-756
1541,5.23,-1.19,1.89,87.5,47.2,31.6,-163,978,-743
1542,5.29,-1.12,2.33,51.6,30.6,30.1,-161,986,-731
1543,5.42,-0.98,2.41,19.0,14.4,33.1,-163,971,-727
1544,5.99,-1.41,2.61,-9.8,-4.0,32.3,-178,976,-712
1545,6.65,-2.00,2.49,-37.3,-23.0,22.6,-198,981,-725
1546,7.35,-2.41,2.21,-65.6,-37.1,9.7,-206,963,-746
1547,7.96,-2.59,1.63,-89.3,-37.9,4.0,-220,947,-751
1548,9.10,-2.90,0.64,-101.9,-23.7,-3.5,-252,947,-768
1549,10.83,-3.31,0.42,-99.2,-5.1,-18.4,-255,930,-768
1550,12.34,-3.60,-0.54,-90.4,27.5,-30.6,-280,947,-761
1551,12.89,-4.01,-1.30,-66.5,43.7,-9.5,-280,947,-743
1552,11.88,-4.21,-1.60,-38.8,31.9,33.7,-292,963,-738
1553,11.60,-3.03,-0.68,-13.8,23.3,52.1,-320,978,-736
1554,12.66,-0.58,1.43,-2.0,50.5,29.5,-326,981,-717
1555,11.97,0.62,4.97,-24.2,70.7,6.6,-341,986,-700
1556,10.19,-0.22,6.44,-62.7,56.8,-3.9,-346,1003,-685
1557,11.06,-0.06,4.16,-103.8,41.0,-23.2,-371,1026,-665
1558,14.49,0.39,3.65,-122.5,8.2,-46.1,-376,1023,-650
1559,12.51,0.12,3.86,-135.4,-26.7,-54.7,-391,1036,-672
1560,12.85,0.43,4.22,-147.1,-44.5,-51.8,-396,991,-687
1561,10.98,0.40,4.56,-154.2,-62.6,-40.9,-403,988,-697
1562,10.06,0.41,4.33,-162.2,-66.3,-35.4,-442,957,-731
1563,9.47,0.46,3.62,-168.8,-61.4,-35.6,-437,935,-751
1564,8.82,0.38,2.57,-177.6,-48.4,-38.4,-470,892,-761
1565,8.03,0.43,1.48,-181.5,-32.0,-37.8,-490,872,-796
1566,7.23,0.27,0.45,-170.9,-13.0,-36.1,-505,842,-825
1567,6.44,0.30,-0.30,-148.6,8.0,-35.3,-510,830,-825
1568,6.14,0.46,0.06,-99.2,27.5,-25.6,-530,830,-806
1569,6.16,0.50,0.31,-86.3,22.7,-18.2,-551,830,-812
1570,6.18,0.68,0.53,-76.9,14.0,-14.6,-543,825,-812
1571,6.61,0.84,0.73,-68.9,5.5,-18.3,-553,817,-815
1572,7.66,1.04,1.05,-61.7,-2.4,-26.5,-553,820,-812
1573,8.60,1.13,1.20,-54.9,-2.1,-30.0,-553,847,-812
1574,9.28,1.22,0.90,-42.4,4.5,-27.6,-535,815,-812
1575,9.57,1.36,0.42,-16.1,14.4,-25.7,-525,820,-827
1576,10.04,1.64,-0.04,22.0,23.8,-25.1,-522,822,-815
1577,10.83,1.92,-0.16,62.7,28.4,-23.3,-507,835,-822
1578,11.50,2.04,-0.35,101.7,29.5,-20.2,-487,855,-788
1579,11.92,1.98,-0.78,134.9,37.3,-18.6,-445,872,-791
1580,12.15,2.19,-0.71,156.6,45.7,-14.9,-416,900,-768
1581,12.67,2.55,0.47,162.7,34.0,0.3,-383,907,-751
1582,13.39,2.55,1.89,161.7,8.9,17.0,-356,935,-746
1583,13.06,1.60,2.58,160.5,-13.9,19.7,-320,925,-738
1584,12.66,0.64,2.13,158.9,-25.5,19.7,-292,927,-743
1585,13.10,0.61,1.38,151.0,-27.2,34.7,-257,915,-756
1586,13.81,1.37,1.37,138.8,-27.2,57.6,-255,900,-756
1587,14.25,1.70,1.05,129.5,-20.5,70.9,-257,890,-771
1588,14.33,1.85,1.19,125.5,-6.2,62.0,-260,880,-781
1589,12.92,1.76,1.35,119.8,13.6,46.6,-252,890,-776
1590,10.58,0.88,1.16,112.0,23.7,42.3,-240,895,-773
1591,8.76,0.08,0.64,103.4,29.9,44.8,-240,895,-776
1592,7.64,-0.26,0.63,97.8,34.6,48.3,-242,915,-753
1593,6.38,-0.35,0.68,93.3,36.7,48.7,-245,917,-756
1594,5.28,-0.36,1.10,83.6,40.0,45.1,-237,925,-736
1595,4.89,-0.63,1.18,68.4,39.8,37.3,-245,955,-715
1596,4.70,-0.77,1.56,48.7,34.3,26.4,-240,950,-717
1597,5.14,-0.90,1.91,26.3,25.5,17.1,-240,971,-710
1598,5.53,-1.16,2.09,1.7,11.9,9.7,-245,971,-705
1599,5.93,-1.42,2.09,-24.0,-4.1,4.9,-252,966,-697
1600,6.38,-1.80,1.83,-49.0,-19.5,1.7,-247,963,-687
1601,7.09,-2.21,1.15,-69.8,-30.0,-0.3,-270,957,-715
1602,7.89,-2.64,0.43,-81.9,-31.5,-4.8,-272,937,-715
1603,9.11,-2.80,-0.14,-80.2,-20.1,-8.9,-297,947,-722
1604,10.22,-3.07,0.19,-63.9,2.6,-13.1,-297,932,-715
1605,12.13,-3.46,-0.00,-39.5,39.6,-19.0,-310,947,-720
1606,12.65,-3.98,-0.50,-7.3,56.2,-3.8,-302,966,-707
1607,12.33,-4.23,-1.19,16.7,51.7,32.9,-305,966,-687
1608,12.50,-2.98,-0.42,34.7,49.1,51.6,-307,986,-685
1609,12.95,-0.29,2.13,37.0,67.6,36.6,-323,1018,-665
1610,11.58,1.12,6.36,-4.9,71.4,19.4,-328,1038,-628
1611,9.65,-0.62,7.25,-54.6,46.1,9.7,-323,1051,-623
1612,11.47,-0.13,5.07,-98.4,32.6,-28.2,-348,1071,-596
1613,13.36,-0.05,4.84,-115.6,4.2,-59.3,-363,1066,-603
1614,13.49,0.05,3.49,-131.6,-14.0,-70.9,-368,1066,-601
1615,13.15,0.57,4.24,-144.3,-36.4,-59.7,-381,1058,-613
1616,11.24,0.39,4.22,-153.3,-59.6,-33.5,-406,1036,-628
1617,9.49,0.09,2.79,-147.4,-64.1,-34.2,-445,991,-692
1618,8.78,0.11,2.08,-144.5,-51.7,-47.5,-475,960,-705
1619,8.17,0.01,1.55,-144.4,-34.0,-51.0,-480,942,-720
1620,7.22,-0.17,0.86,-141.9,-14.0,-45.1,-495,930,-746
1621,6.48,-0.41,0.54,-132.9,5.1,-35.3,-500,910,-756
1622,5.90,-0.30,0.46,-117.5,18.9,-25.9,-520,907,-761
1623,5.53,-0.17,0.42,-99.4,23.8,-21.8,-535,902,-763
1624,5.74,0.09,0.63,-86.0,21.0,-21.0,-551,910,-753
1625,6.22,0.32,0.64,-77.6,11.6,-21.6,-553,917,-771
1626,6.91,0.57,0.70,-70.0,0.8,-22.0,-561,912,-751
1627,7.63,0.91,0.48,-59.5,-5.8,-23.5,-561,912,-756
1628,8.39,1.22,0.31,-44.4,-6.4,-25.5,-563,887,-776
1629,9.08,1.42,0.19,-22.2,-2.7,-27.0,-558,897,-776
1630,9.86,1.65,0.27,8.7,1.5,-26.2,-548,892,-763
1631,10.53,1.52,0.27,42.6,6.7,-26.6,-532,900,-773
1632,11.16,1.37,0.49,74.2,13.4,-26.6,-512,905,-771
1633,11.56,1.18,0.27,104.1,23.3,-24.8,-485,925,-758
1634,11.83,1.26,-0.07,134.5,31.5,-21.6,-447,947,-751
1635,12.58,1.95,0.70,156.8,28.0,-9.6,-418,971,-743
1636,13.41,2.48,1.42,161.6,12.4,6.4,-366,973,-733
1637,13.51,2.16,1.41,156.4,-2.0,9.2,-356,983,-731
1638,13.05,1.17,0.83,151.5,-4.8,6.6,-323,998,-722
1639,13.06,0.36,-0.37,148.0,-7.7,19.0,-290,988,-736
1640,13.89,0.92,0.42,138.6,-8.4,42.0,-255,993,-727
1641,13.65,1.28,1.44,128.4,-11.5,62.6,-255,996,-733
1642,13.37,1.61,2.09,124.4,-20.5,71.0,-250,968,-748
1643,13.18,1.71,1.82,120.1,-20.1,67.5,-252,971,-756
1644,12.65,1.62,1.37,110.3,0.9,53.3,-237,971,-763
1645,10.89,0.62,0.52,99.7,22.0,43.1,-250,973,-756
1646,8.83,-0.16,0.32,92.5,31.4,41.8,-237,978,-736
1647,7.25,-0.41,0.82,84.3,35.6,43.1,-250,998,-731
1648,5.82,-0.67,1.20,68.5,36.2,43.1,-237,1013,-722
1649,5.22,-0.56,1.33,49.7,33.1,38.7,-240,1023,-712
1650,4.59,-0.67,1.47,29.2,28.3,29.6,-255,1036,-707
1651,4.51,-0.86,1.66,7.5,19.8,18.3,-255,1061,-690
1652,4.92,-1.12,1.92,-15.7,6.3,7.1,-262,1046,-682
1653,5.29,-1.49,1.63,-37.2,-5.7,3.2,-260,1048,-682
1654,6.08,-1.77,1.14,-52.2,-15.3,1.6,-272,1061,-682
1655,6.52,-2.23,0.17,-56.5,-19.2,0.7,-295,1041,-705
1656,7.55,-2.59,-0.74,-50.8,-19.5,-8.1,-310,1036,-720
1657,8.97,-2.91,-1.39,-38.2,-13.0,-16.8,-307,1033,-702
1658,10.48,-3.03,-0.49,-21.8,-0.2,-16.6,-317,1053,-722
1659,12.01,-3.12,-0.15,-10.6,33.8,-11.5,-297,1048,-720
1660,12.59,-3.60,-0.29,6.9,54.5,5.5,-315,1056,-702
1661,12.23,-4.19,-1.13,24.2,46.5,35.9,-312,1073,-675
1662,11.01,-3.43,-0.63,34.6,20.7,62.7,-317,1103,-677
1663,10.99,-1.55,1.62,41.1,16.2,63.4,-336,1096,-667
1664,11.97,1.05,4.10,18.4,45.7,23.9,-346,1113,-646
1665,10.84,0.64,6.40,-27.2,55.6,-4.7,-356,1116,-623
1666,13.92,-0.13,5.00,-109.6,47.3,-60.3,-373,1161,-588
1667,13.08,-0.32,4.26,-126.1,12.0,-64.8,-388,1158,-593
1668,13.82,0.24,3.73,-134.7,-20.3,-66.0,-393,1168,-578
1669,12.27,0.46,3.93,-137.4,-54.1,-48.5,-413,1151,-611
1670,11.03,0.40,3.57,-135.6,-71.5,-29.6,-462,1121,-641
1671,10.01,0.48,3.01,-128.6,-72.5,-28.4,-457,1098,-650
1672,9.13,0.48,2.66,-121.7,-66.3,-32.7,-492,1066,-712
1673,8.42,0.30,2.09,-118.9,-50.0,-29.3,-520,1048,-725
1674,7.96,0.22,1.55,-117.9,-23.9,-27.2,-535,1021,-751
1675,7.22,-0.03,1.07,-115.3,8.6,-29.9,-553,993,-758
1676,6.38,-0.22,0.64,-107.1,35.2,-31.6,-558,1001,-758
1677,6.18,-0.11,0.63,-94.0,43.9,-31.4,-578,1006,-748
1678,5.89,-0.04,0.41,-81.6,36.3,-24.6,-596,1013,-736
1679,5.96,0.30,0.33,-70.1,22.5,-14.3,-598,1018,-743
1680,6.33,0.58,0.20,-58.5,10.6,-7.9,-626,1016,-741
1681,6.98,0.73,0.05,-46.0,4.5,-9.5,-618,1016,-746
1682,7.90,0.86,0.04,-30.1,2.4,-13.3,-643,1008,-741
1683,8.78,0.94,-0.01,-9.0,3.6,-15.9,-636,1006,-746
1684,9.68,0.97,0.04,17.0,7.8,-19.8,-633,1003,-743
1685,10.37,1.03,0.02,43.7,13.9,-23.1,-613,1016,-746
1686,10.92,1.08,-0.06,69.4,19.1,-23.4,-588,1041,-751
1687,11.67,0.96,-0.38,97.3,22.1,-24.4,-543,1041,-731
1688,12.45,0.94,-1.13,124.3,24.1,-26.9,-515,1073,-712
1689,13.38,1.23,-0.78,138.7,15.7,-18.3,-465,1093,-720
1690,14.35,1.79,0.71,133.8,-3.7,2.7,-445,1088,-705
1691,14.36,1.32,2.08,126.2,-22.8,11.5,-423,1096,-710
1692,13.59,0.29,2.30,119.8,-35.6,10.2,-381,1088,-722
1693,13.12,-0.02,1.86,107.7,-39.5,18.9,-366,1091,-722
1694,13.75,0.57,1.69,89.6,-36.0,37.5,-348,1081,-751
1695,14.04,1.31,1.94,71.1,-27.5,56.0,-333,1076,-758
1696,13.58,1.29,1.71,62.7,-16.8,63.8,-356,1071,-768
1697,12.66,1.21,1.66,66.0,-5.3,62.0,-368,1066,-763
1698,11.42,0.82,1.22,75.4,6.1,57.5,-391,1068,-753
1699,9.81,0.32,0.67,84.1,16.4,53.7,-386,1061,-751
1700,8.44,0.11,0.30,89.2,26.0,52.2,-396,1088,-756
1701,7.28,-0.01,0.40,90.3,31.6,49.5,-381,1096,-733
1702,6.25,-0.22,0.61,88.4,30.5,47.1,-383,1098,-731
1703,5.55,-0.44,0.84,80.5,28.2,43.9,-378,1123,-707
1704,5.08,-0.63,1.09,65.2,25.5,38.2,-368,1141,-707
1705,5.07,-0.66,1.36,46.2,20.4,31.3,-376,1148,-702
1706,5.21,-0.74,1.67,24.2,13.1,23.0,-383,1153,-687
1707,5.57,-1.10,1.56,3.4,2.5,14.3,-383,1153,-687
1708,6.03,-1.74,1.02,-16.1,-7.7,8.0,-388,1153,-687
1709,6.55,-2.47,0.25,-32.3,-16.9,4.0,-398,1146,-705
1710,7.56,-2.99,0.01,-40.1,-26.8,3.7,-421,1146,-702
1711,8.45,-3.57,-0.39,-40.6,-26.6,2.8,-428,1128,-705
1712,9.75,-3.48,0.38,-32.8,-14.5,0.6,-437,1116,-702
1713,10.76,-3.85,0.43,-25.4,19.5,-4.3,-432,1113,-717
1714,11.78,-4.45,0.11,-12.0,51.4,1.1,-455,1143,-702
1715,11.96,-4.40,-0.99,33.8,42.3,51.8,-480,1153,-685
1716,13.00,-2.24,1.54,49.3,53.4,36.6,-482,1173,-646
1717,13.04,0.40,5.64,17.8,67.5,11.4,-495,1206,-626
1718,10.42,-0.81,6.71,-33.2,47.4,8.2,-485,1216,-586
1719,11.26,-1.19,5.54,-84.1,24.9,-14.8,-510,1228,-573
1720,12.43,-0.82,5.55,-106.3,-2.1,-40.4,-512,1233,-578
1721,12.37,-0.81,3.98,-116.4,-17.5,-53.6,-548,1213,-588
1722,12.67,-0.12,3.88,-120.5,-24.4,-54.8,-563,1191,-606
1723,11.21,-0.13,3.63,-120.0,-29.0,-40.0,-566,1181,-616
1724,10.12,-0.33,2.96,-114.2,-28.2,-34.4,-598,1173,-643
1725,9.10,-0.40,2.18,-107.1,-22.0,-44.8,-638,1148,-660
1726,8.31,-0.49,1.62,-104.7,-16.4,-57.4,-641,1121,-690
1727,7.68,-0.40,1.17,-106.0,-9.5,-60.8,-641,1121,-692
1728,7.30,-0.38,0.73,-106.8,0.1,-56.3,-643,1093,-717
1729,6.85,-0.58,0.38,-100.5,12.7,-44.5,-655,1061,-741
1730,6.52,-0.69,0.24,-88.4,25.8,-36.2,-667,1073,-733
1731,6.49,-0.80,0.61,-76.6,29.9,-34.9,-667,1068,-733
1732,6.55,-0.73,0.95,-71.6,23.9,-32.8,-685,1066,-738
1733,6.91,-0.63,1.17,-71.9,11.5,-27.1,-692,1073,-733
1734,7.38,-0.40,1.12,-71.0,0.2,-18.8,-707,1056,-722
1735,7.89,-0.26,0.87,-64.4,-3.3,-15.4,-705,1038,-741
1736,8.73,-0.40,0.57,-52.3,-1.2,-19.1,-715,1031,-746
1737,9.44,-0.58,0.38,-35.4,5.1,-22.5,-715,1026,-758
1738,9.89,-0.59,0.17,-14.1,13.2,-21.2,-717,1033,-753
1739,10.40,-0.48,0.14,11.1,17.5,-16.8,-702,1028,-753
1740,10.81,-0.42,-0.02,36.6,16.6,-14.7,-687,1041,-751
1741,11.46,-0.53,-0.45,58.6,15.5,-15.9,-675,1053,-738
1742,12.39,-0.48,-0.46,74.1,11.9,-16.0,-665,1071,-748
1743,13.55,-0.05,0.52,77.1,-1.3,-3.3,-631,1088,-731
1744,14.19,0.21,1.96,66.9,-23.7,17.2,-626,1083,-748
1745,13.93,-0.01,2.68,57.1,-38.6,21.3,-606,1078,-751
1746,13.35,-0.19,2.83,46.2,-39.3,14.6,-601,1071,-756
1747,12.83,-0.06,2.35,31.2,-36.1,15.3,-603,1056,-766
1748,13.34,0.23,1.40,14.9,-36.7,22.0,-608,1048,-776
1749,14.10,0.75,0.49,9.3,-40.1,27.4,-618,1041,-783
1750,14.34,1.26,0.19,15.1,-41.3,31.5,-641,1001,-806
1751,13.09,1.40,0.35,21.1,-39.9,36.0,-638,998,-830
1752,11.10,1.15,0.48,21.4,-36.1,38.1,-650,981,-820
1753,9.32,0.74,0.37,19.4,-28.9,35.6,-655,971,-825
1754,7.99,0.29,0.19,18.6,-17.2,30.7,-655,973,-842
1755,6.70,-0.12,0.25,20.2,-6.1,26.4,-682,966,-832
1756,5.74,-0.39,0.42,21.1,3.4,25.5,-677,973,-827
1757,4.86,-0.59,0.63,18.9,10.9,27.3,-677,973,-820
1758,4.45,-0.86,0.75,15.2,17.4,27.7,-712,968,-820
1759,4.44,-1.02,0.97,10.7,21.7,24.8,-712,968,-803
1760,4.66,-1.09,1.26,2.3,21.1,13.7,-725,976,-798
1761,5.08,-1.29,1.13,-10.7,10.9,3.6,-732,983,-796
1762,5.76,-1.54,0.64,-24.0,-3.6,-4.9,-722,983,-801
1763,6.67,-1.88,-0.14,-33.3,-14.8,-9.6,-737,978,-803
1764,9.26,-2.81,-2.04,-21.6,-1.1,-12.1,-752,950,-825
1765,11.08,-2.71,-1.80,-6.2,21.8,-10.3,-737,966,-815
1766,12.32,-2.71,-1.17,1.9,54.4,-10.7,-735,963,-801
1767,12.62,-3.39,-1.98,12.9,66.6,2.0,-727,976,-791
1768,12.96,-3.80,-3.09,27.1,57.9,32.1,-742,1001,-776
1769,13.95,-2.48,-1.53,48.1,47.1,57.4,-730,1041,-727
1770,13.50,-0.71,2.79,61.2,60.3,58.0,-756,1058,-712
1771,12.05,0.57,6.52,28.9,63.2,42.7,-773,1086,-662
1772,10.04,-0.73,6.50,-24.1,38.3,41.8,-771,1118,-633
1773,12.39,0.97,5.24,-62.7,35.5,-12.2,-803,1103,-636
1774,11.02,0.29,4.36,-70.4,20.9,-41.1,-808,1098,-636
1775,10.84,0.37,3.82,-65.2,8.9,-55.3,-808,1096,-631
1776,10.32,0.37,4.25,-49.9,0.9,-65.8,-793,1071,-638
1777,10.76,0.58,3.96,-37.5,5.3,-72.0,-793,1068,-665
1778,11.38,0.75,3.06,-37.2,7.0,-72.1,-768,1071,-677
1779,10.83,0.50,1.83,-46.0,-0.2,-61.5,-761,1073,-685
1780,9.97,0.17,0.82,-52.1,-7.5,-45.6,-742,1058,-697
1781,8.80,-0.10,0.20,-49.0,-11.1,-28.0,-750,1056,-712
1782,7.91,-0.22,0.11,-36.7,-9.4,-12.7,-745,1043,-715
1783,7.02,-0.32,0.38,-23.3,-1.0,-5.7,-747,1031,-727
1784,6.17,-0.18,0.85,-15.0,7.0,-4.7,-742,1031,-731
1785,5.69,-0.07,1.22,-15.2,9.4,-10.1,-761,1038,-736
1786,5.93,0.30,1.46,-21.3,6.5,-18.4,-745,1016,-731
1787,6.55,0.47,1.45,-26.3,0.7,-22.5,-727,1041,-725
1788,7.19,0.42,1.00,-25.1,-0.2,-24.9,-745,1021,-720
1789,7.69,0.38,0.60,-14.7,3.2,-30.1,-737,1023,-743
1790,8.23,0.46,0.56,4.4,7.1,-30.9,-730,1026,-743
1791,8.83,0.42,0.91,26.4,8.8,-29.4,-712,1038,-741
1792,9.75,0.69,1.32,46.0,8.6,-28.0,-697,1036,-741
1793,10.58,0.81,1.25,64.5,8.3,-28.7,-660,1066,-738
1794,11.11,0.94,0.60,86.2,14.4,-29.7,-638,1051,-738
1795,11.54,0.83,-0.18,115.7,28.6,-31.6,-598,1081,-722
1796,12.39,1.19,0.22,145.9,36.3,-25.4,-563,1103,-717
1797,13.68,1.83,1.54,162.1,26.2,-4.0,-512,1131,-682
1798,14.07,2.08,2.51,164.9,4.7,16.6,-482,1146,-687
1799,13.86,1.33,2.19,162.5,-14.2,21.7,-421,1151,-687
1800,14.08,0.83,0.95,158.9,-24.0,27.0,-383,1156,-700
1801,14.79,1.39,1.03,152.0,-31.5,41.8,-351,1138,-702
1802,14.37,1.88,2.35,139.1,-40.3,59.6,-331,1146,-707
1803,13.66,1.99,2.84,123.6,-47.5,69.7,-331,1123,-725
1804,12.84,2.06,2.62,111.6,-50.5,69.5,-320,1103,-746
1805,11.87,2.00,1.87,101.3,-42.6,64.5,-323,1083,-756
1806,10.84,1.53,1.12,94.9,-24.8,60.7,-326,1083,-783
1807,9.46,0.88,0.55,94.1,-3.7,59.8,-333,1073,-773
1808,7.96,0.33,0.45,98.1,14.9,59.1,-320,1066,-773
1809,6.83,-0.09,0.88,99.0,25.3,55.8,-341,1078,-766
1810,6.11,-0.41,1.27,88.2,30.1,48.3,-336,1103,-751
1811,5.57,-0.75,1.67,64.8,25.6,37.9,-328,1108,-738
1812,5.32,-1.21,1.89,35.8,16.7,32.0,-331,1101,-736
1813,5.35,-1.58,2.26,-24.1,-3.0,27.9,-353,1118,-725
1814,5.45,-1.97,1.89,-48.9,-10.8,16.8,-376,1108,-733
1815,5.64,-2.72,0.88,-69.9,-15.1,2.5,-398,1111,-738
1816,6.05,-3.53,-0.34,-82.4,-17.8,-8.1,-413,1083,-743
1817,6.71,-4.35,-1.02,-79.7,-17.1,-14.0,-435,1076,-756
1818,8.63,-4.93,-1.25,-60.3,-6.8,-19.5,-442,1068,-748
1819,10.44,-4.93,-0.75,-39.9,19.2,-19.5,-452,1056,-766
1820,12.37,-4.92,-0.96,-25.0,55.9,-10.9,-442,1063,-756
1821,12.48,-5.07,-1.24,-8.2,62.5,17.3,-457,1086,-738
1822,12.17,-4.73,-0.99,8.0,43.8,47.2,-475,1098,-717
1823,12.44,-3.05,0.64,22.0,33.8,52.5,-482,1108,-705
1824,13.06,-0.25,4.31,7.5,47.2,35.5,-497,1126,-680
1825,11.59,0.05,7.17,-46.7,43.6,22.8,-507,1131,-650
1826,10.60,-1.05,5.71,-107.0,41.3,5.6,-522,1143,-650
1827,14.20,0.52,3.66,-146.9,41.6,-37.2,-561,1131,-631
1828,13.51,-0.15,2.94,-152.5,13.2,-53.0,-596,1133,-633
1829,13.51,0.05,2.75,-150.1,-16.1,-55.9,-628,1111,-650
1830,11.69,0.08,3.23,-144.1,-46.8,-44.3,-641,1091,-655
1831,10.62,0.05,3.23,-135.8,-61.8,-34.2,-667,1053,-722
1832,9.72,0.06,2.62,-126.0,-57.7,-33.0,-675,1018,-741
1833,9.03,0.04,2.00,-118.1,-42.2,-39.8,-692,968,-773
1834,8.56,0.03,1.43,-113.0,-24.2,-43.4,-695,952,-783
1835,8.08,-0.03,0.72,-107.6,-2.4,-38.8,-705,927,-806
1836,7.27,-0.33,-0.16,-100.1,21.8,-39.1,-712,910,-801
1837,6.62,-0.18,-0.35,-89.0,34.5,-40.2,-717,907,-815
1838,6.10,-0.29,-0.36,-77.8,30.8,-34.5,-717,912,-801
1839,6.07,-0.35,-0.03,-74.5,16.8,-22.9,-710,917,-803
1840,6.36,-0.26,0.19,-75.1,-2.8,-9.8,-725,905,-817
1841,6.73,0.04,-0.09,-73.2,-15.6,-4.8,-727,892,-808
1842,7.28,0.22,-0.36,-65.4,-15.8,-9.0,-740,867,-820
1843,7.84,0.21,-0.45,-51.9,-10.2,-16.1,-752,850,-835
1844,8.55,0.23,-0.34,-33.0,-3.8,-22.9,-740,845,-837
1845,9.26,0.20,-0.11,-13.2,3.8,-27.5,-737,837,-850
1846,9.96,0.19,0.14,7.4,11.3,-27.3,-715,830,-847
1847,10.69,0.20,0.15,30.8,14.2,-26.1,-695,842,-870
1848,11.41,0.17,-0.20,57.1,18.4,-25.9,-692,860,-845
1849,12.01,0.42,-1.01,86.1,25.6,-27.2,-667,872,-855
1850,12.57,1.15,-0.91,110.9,29.6,-22.1,-633,890,-832
1851,12.92,1.74,0.74,119.8,20.2,-8.4,-593,905,-808
1852,12.98,1.68,2.15,116.9,5.5,0.1,-566,937,-806
1853,12.71,1.20,2.89,112.1,-5.9,-6.4,-543,937,-803
1854,12.72,0.50,2.74,104.7,-11.6,-16.2,-512,947,-808
1855,12.96,0.43,1.84,96.4,-13.9,-9.9,-480,942,-812
1856,14.01,1.01,0.15,89.8,-9.6,15.1,-460,952,-803
1857,14.91,1.78,-1.17,94.9,-2.9,39.2,-467,945,-812
1858,14.83,2.26,-1.31,111.2,-2.1,50.8,-455,957,-817
1859,13.01,2.08,-0.59,125.1,-6.0,57.0,-452,960,-801
1860,10.91,1.48,0.30,129.3,-9.4,59.3,-457,966,-801
1861,8.99,0.91,0.71,127.6,-6.2,61.1,-452,963,-801
1862,6.33,0.23,1.23,120.5,12.3,57.5,-435,968,-793
1863,5.60,-0.06,1.38,111.8,21.2,47.0,-445,981,-778
1864,4.92,-0.41,1.52,97.0,28.3,34.4,-432,998,-776
1865,4.53,-0.58,1.54,76.4,32.0,24.5,-432,1006,-761
1866,4.51,-0.91,1.66,53.2,31.7,16.6,-428,1008,-736
1867,4.82,-1.34,1.46,31.2,25.9,5.0,-428,1033,-725
1868,5.65,-1.80,1.27,12.0,14.7,-9.0,-416,1036,-720
1869,6.22,-2.62,0.57,-3.4,3.7,-22.8,-396,1031,-736
1870,7.11,-3.13,0.05,-12.1,-7.7,-27.0,-393,1028,-733
1871,8.10,-3.60,0.08,-15.3,-12.9,-22.2,-373,1036,-727
1872,9.33,-3.79,-0.22,-16.7,0.6,-16.2,-373,1023,-741
1873,10.43,-3.89,0.46,-10.5,26.7,-9.6,-356,1016,-727
1874,11.78,-4.09,0.16,-0.6,61.5,-6.4,-368,1031,-712
1875,12.42,-4.52,0.03,20.9,66.2,11.3,-376,1058,-695
1876,12.19,-4.85,0.16,36.1,46.1,36.9,-376,1063,-682
1877,12.31,-3.50,1.26,42.3,33.9,51.6,-373,1076,-670
1878,12.84,-1.48,3.37,39.9,50.5,41.9,-363,1088,-646
1879,12.45,0.84,6.31,-2.3,66.2,23.7,-373,1123,-621
1880,10.52,-0.34,6.96,-59.4,51.0,16.8,-388,1131,-606
1881,11.77,-0.65,5.11,-110.6,38.5,-23.7,-416,1126,-598
1882,14.00,-0.06,4.70,-133.5,11.3,-62.2,-426,1126,-593
1883,13.39,-0.15,3.40,-145.2,-21.2,-64.0,-428,1131,-591
1884,12.64,0.36,3.62,-151.8,-48.8,-42.4,-455,1106,-621
1885,10.97,0.35,3.32,-149.9,-64.9,-16.0,-502,1076,-650
1886,9.86,0.20,2.97,-135.9,-66.4,-11.1,-520,1043,-675
1887,9.15,0.17,2.29,-121.4,-56.8,-25.9,-527,1016,-692
1888,8.36,0.14,1.70,-114.4,-42.7,-44.7,-551,1001,-727
1889,7.98,0.22,1.35,-116.9,-27.0,-53.4,-553,963,-751
1890,7.57,0.18,0.98,-121.9,-7.4,-44.1,-561,950,-753
1891,6.65,-0.22,0.53,-119.1,11.3,-30.0,-576,932,-768
1892,6.10,-0.49,0.28,-104.9,17.5,-24.4,-576,927,-773
1893,5.76,-0.59,0.25,-88.9,12.5,-20.7,-588,935,-773
1894,5.98,-0.36,0.41,-76.4,0.3,-12.7,-596,932,-758
1895,6.10,0.00,0.38,-66.8,-9.3,-1.7,-603,910,-768
1896,6.46,0.08,0.54,-56.5,-12.1,0.3,-623,902,-791
1897,7.42,-0.14,0.59,-45.2,-8.7,-7.7,-631,897,-793
1898,8.53,-0.24,0.43,-31.9,-5.5,-18.0,-633,902,-783
1899,9.69,0.04,0.04,-14.2,-2.6,-22.4,-618,880,-806
1900,10.65,0.39,-0.38,9.3,1.0,-20.7,-611,887,-801
1901,11.48,0.58,-0.67,37.5,6.2,-16.8,-601,882,-796
1902,12.05,0.66,-1.08,68.4,12.6,-15.6,-586,907,-781
1903,12.51,0.41,-1.41,99.9,16.8,-17.2,-548,905,-793
1904,12.98,0.61,-0.81,118.8,10.2,-9.5,-525,932,-793
1905,13.38,1.02,0.70,119.2,-6.5,10.4,-485,947,-776
1906,13.60,1.01,2.08,114.2,-26.8,23.8,-472,927,-763
1907,13.03,0.49,2.45,108.8,-39.0,19.1,-462,932,-788
1908,12.58,-0.20,1.90,103.5,-38.0,5.8,-437,935,-786
1909,12.95,-0.36,0.83,92.2,-29.8,3.6,-432,927,-806
1910,14.22,0.49,0.57,75.7,-20.8,18.7,-398,927,-812
1911,13.68,0.74,-0.15,76.3,-15.4,33.9,-368,907,-812
1912,12.52,0.55,-0.17,85.8,-13.5,37.5,-378,910,-812
1913,10.81,0.16,-0.30,92.0,-9.1,42.9,-393,907,-827
1914,8.97,-0.27,-0.29,95.7,-3.6,48.9,-388,912,-822
1915,7.35,-0.46,-0.02,97.6,3.2,53.3,-378,907,-830
1916,6.13,-0.53,0.34,96.7,11.3,52.0,-393,927,-808
1917,4.97,-0.52,0.77,92.6,17.6,45.9,-391,925,-812
1918,4.31,-0.68,1.08,82.5,21.3,38.0,-398,927,-815
1919,4.13,-0.76,1.39,68.6,19.1,29.5,-388,945,-798
1920,4.33,-1.01,1.53,50.2,16.0,19.7,-381,940,-798
1921,4.86,-1.41,1.42,29.2,11.1,7.5,-366,963,-781
1922,5.77,-2.01,0.96,5.5,2.6,-7.5,-376,960,-783
1923,6.58,-2.69,0.02,-15.9,-6.6,-18.6,-361,963,-806
1924,7.41,-3.31,-0.94,-28.7,-11.8,-22.2,-356,963,-793
1925,8.46,-3.88,-1.15,-30.3,-11.5,-24.0,-348,950,-798
1926,10.04,-3.94,-0.56,-22.6,-1.8,-25.1,-336,957,-803
1927,11.21,-4.08,0.19,-19.3,22.2,-24.2,-336,955,-798
1928,12.54,-4.52,-0.75,-17.8,53.1,-16.9,-320,963,-788
1929,12.62,-5.09,-1.69,-2.5,57.7,9.7,-326,983,-766
1930,12.23,-4.99,-2.12,19.0,46.2,39.2,-331,1018,-753
1931,12.75,-3.76,0.11,42.9,45.1,45.9,-333,1036,-753
1932,13.25,-1.54,3.28,38.6,56.8,36.2,-346,1046,-715
1933,12.29,-0.48,6.15,-15.5,53.7,34.1,-346,1053,-692
1934,10.14,-1.36,6.73,-77.6,27.0,29.2,-366,1073,-695
1935,11.36,-0.66,4.47,-128.9,24.2,-14.9,-386,1083,-685
1936,12.33,-0.54,3.81,-147.0,7.1,-55.3,-411,1078,-687
1937,12.49,-0.53,2.68,-152.5,-14.4,-60.2,-432,1073,-682
1938,11.83,-0.48,2.91,-149.1,-36.6,-42.5,-447,1078,-697
1939,10.87,-0.57,2.94,-139.9,-50.5,-21.7,-472,1033,-727
1940,10.03,-0.65,2.38,-124.6,-46.7,-16.7,-492,1021,-753
1941,9.19,-0.64,1.70,-108.4,-32.0,-26.6,-520,986,-766
1942,8.25,-0.51,0.95,-95.1,-15.1,-39.3,-520,981,-786
1943,7.53,-0.20,0.64,-83.8,1.4,-45.5,-517,968,-781
1944,6.85,0.01,0.29,-72.7,16.3,-39.8,-517,966,-776
1945,6.12,0.09,0.22,-60.9,31.0,-28.9,-497,976,-791
1946,5.66,-0.14,0.30,-48.8,36.0,-23.4,-512,983,-783
1947,5.70,-0.31,0.63,-41.7,33.5,-23.8,-507,988,-766
1948,6.22,-0.27,0.76,-38.4,26.8,-25.6,-510,1003,-771
1949,6.91,-0.08,0.67,-35.9,19.6,-26.5,-510,1021,-751
1950,7.86,-0.02,0.41,-30.0,16.0,-28.7,-502,1023,-751
1951,8.57,-0.13,-0.06,-19.3,16.7,-33.1,-495,1018,-753
1952,9.20,-0.07,-0.21,-1.1,18.6,-36.7,-490,1023,-748
1953,9.72,0.04,-0.22,23.5,21.4,-35.7,-465,1038,-743
1954,10.77,0.19,0.21,47.7,22.0,-30.9,-440,1056,-733
1955,11.75,0.08,0.38,70.4,15.0,-25.6,-416,1061,-722
1956,12.26,-0.13,0.10,93.6,10.7,-23.3,-381,1071,-722
1957,12.57,-0.12,-0.29,117.6,13.3,-23.8,-333,1083,-710
1958,13.21,0.28,-0.13,131.5,12.5,-16.7,-300,1096,-702
1959,14.04,1.17,0.72,127.7,4.8,2.8,-267,1101,-700
1960,12.69,0.08,1.83,118.9,-29.1,2.9,-193,1091,-705
1961,12.55,-0.18,1.86,103.6,-39.1,13.8,-168,1073,-727
1962,13.14,0.30,1.73,85.1,-39.3,26.8,-138,1046,-751
1963,13.75,1.05,1.91,68.7,-33.5,36.7,-138,1036,-766
1964,13.64,1.29,1.57,60.4,-28.2,40.0,-126,1033,-786
1965,12.97,1.22,1.11,61.1,-21.2,38.1,-128,1006,-793
1966,11.95,1.01,0.62,70.3,-11.3,36.0,-126,1001,-808
1967,10.42,0.46,0.27,81.4,-0.6,38.6,-126,1001,-803
1968,8.72,0.11,0.28,87.4,9.6,47.0,-141,988,-827
1969,7.18,-0.22,0.31,88.3,16.9,55.4,-123,1003,-820
1970,6.22,-0.20,0.50,85.6,20.5,57.9,-131,993,-822
1971,5.52,-0.57,0.75,77.9,22.7,50.9,-141,1006,-812
1972,4.99,-0.68,0.78,63.6,25.4,38.6,-148,986,-817
1973,4.84,-0.75,0.93,44.9,29.1,25.5,-146,1006,-812
1974,5.00,-1.04,1.31,23.8,28.9,11.9,-141,1013,-815
1975,5.28,-1.62,1.71,-0.4,18.3,1.0,-141,1026,-817
1976,5.90,-2.17,1.58,-25.4,1.0,-5.9,-138,1026,-812
1977,6.87,-2.75,0.95,-45.3,-12.8,-9.5,-141,1041,-788
1978,7.52,-3.19,0.46,-57.7,-18.9,-11.8,-161,1026,-812
1979,8.16,-3.61,-0.18,-67.4,-14.5,-14.9,-161,1023,-806
1980,9.28,-3.61,-0.29,-71.8,-0.4,-15.9,-161,1021,-812
1981,10.59,-3.88,-0.72,-67.3,28.1,-14.4,-173,1016,-817
1982,11.98,-4.40,-1.28,-47.3,57.2,-11.8,-183,1031,-803
1983,12.13,-5.09,-1.99,-20.1,53.7,6.6,-186,1043,-793
1984,12.17,-5.11,-2.07,2.0,29.0,32.2,-196,1058,-783
1985,12.52,-3.26,0.32,15.5,20.5,42.6,-208,1068,-776
1986,13.13,0.23,4.52,-6.1,39.6,24.6,-222,1076,-761
1987,11.70,-0.12,6.79,-45.2,40.5,11.7,-245,1083,-766
1988,10.56,-1.22,6.89,-81.8,29.2,-7.9,-267,1101,-738
1989,12.01,-0.49,6.71,-110.3,21.5,-40.3,-287,1101,-746
1990,11.73,-0.65,6.37,-132.4,2.0,-56.4,-280,1113,-738
1991,11.91,-0.20,5.39,-156.1,-19.7,-54.6,-302,1091,-751
1992,11.45,0.31,4.82,-171.6,-37.7,-44.8,-326,1066,-761
1993,10.73,0.39,4.06,-177.9,-44.5,-37.6,-351,1041,-781
1994,10.05,0.27,3.21,-176.9,-39.8,-39.7,-378,1008,-801
1995,9.23,0.01,2.46,-172.6,-31.6,-46.7,-403,988,-825
1996,8.47,-0.13,1.71,-164.6,-24.1,-48.4,-421,973,-842
1997,7.93,-0.14,0.84,-150.9,-12.2,-39.8,-428,947,-872
1998,7.36,-0.05,0.02,-129.1,4.0,-29.3,-455,907,-870
1999,6.77,0.03,-0.42,-101.8,20.8,-22.9,-457,892,-872
2000,6.47,0.18,-0.23,-78.6,30.2,-18.4,-462,897,-882
2001,6.35,0.16,0.17,-65.0,28.3,-16.7,-472,900,-875
2002,6.48,0.23,0.46,-59.4,18.9,-17.8,-485,882,-877
2003,6.96,0.51,0.43,-56.9,8.4,-19.6,-492,877,-882
2004,7.66,0.73,0.36,-53.9,-0.1,-21.3,-500,875,-890
2005,8.40,0.83,0.07,-44.5,-4.5,-21.3,-510,852,-893
2006,9.16,0.75,-0.02,-24.5,-3.6,-21.9,-510,840,-906
2007,9.68,0.70,-0.04,4.5,3.4,-24.9,-525,832,-916
2008,10.56,0.77,0.22,34.1,10.1,-27.3,-502,827,-903
2009,11.86,1.06,-0.25,90.3,9.5,-19.7,-485,832,-906
2010,12.37,1.02,-0.79,118.6,10.4,-16.5,-480,835,-898
2011,12.72,1.10,-0.39,141.4,9.4,-12.1,-455,850,-906
2012,13.06,1.68,1.54,142.6,2.4,0.9,-447,875,-898
2013,13.17,1.48,2.51,136.3,-6.0,6.5,-437,862,-898
2014,12.31,0.60,2.48,127.0,-10.6,-3.9,-435,872,-903
2015,12.09,-0.03,1.77,111.3,-6.0,-3.9,-428,877,-882
2016,12.51,-0.32,0.82,102.1,-7.7,10.3,-401,895,-877
2017,13.24,0.04,0.79,104.6,-10.0,28.7,-408,887,-906
2018,13.45,0.54,1.36,111.7,-15.4,47.0,-416,885,-898
2019,12.93,0.74,1.75,115.2,-22.0,57.7,-418,900,-906
2020,12.04,0.59,1.81,112.3,-22.0,59.9,-413,887,-903
2021,10.83,0.02,1.28,104.6,-6.1,54.0,-440,895,-908
2022,9.59,-0.42,0.89,98.0,16.2,44.4,-457,905,-893
2023,8.08,-0.94,0.57,93.3,33.6,39.6,-457,927,-893
2024,6.84,-1.02,0.59,85.6,42.7,41.4,-450,950,-857
2025,5.88,-1.03,0.70,73.1,43.4,41.9,-472,978,-860
2026,5.12,-1.04,0.84,55.5,41.2,37.9,-475,998,-842
2027,4.93,-1.22,1.11,34.8,36.6,28.9,-480,1011,-830
2028,5.06,-1.44,1.57,13.4,27.2,17.0,-480,1033,-812
2029,5.40,-1.73,1.75,-10.0,12.2,6.1,-497,1051,-796
2030,6.08,-1.94,1.73,-32.9,-5.2,0.2,-500,1048,-803
2031,6.54,-2.41,1.31,-55.8,-16.0,0.3,-517,1058,-806
2032,7.22,-2.88,0.65,-75.5,-20.5,-0.1,-527,1046,-808
2033,8.38,-3.08,0.24,-83.3,-16.7,-6.6,-551,1036,-798
2034,9.56,-3.33,-0.01,-76.6,-2.3,-12.6,-558,1018,-812
2035,11.43,-3.70,-0.21,-56.8,30.1,-22.9,-581,1016,-812
2036,12.28,-4.14,-0.30,-26.5,53.4,-16.4,-578,1031,-793
2037,11.88,-4.51,-0.51,-2.2,50.9,19.4,-591,1051,-766
2038,11.41,-3.84,0.09,13.7,36.6,51.3,-603,1056,-753
2039,12.09,-1.90,1.87,27.1,51.8,44.4,-628,1091,-738
2040,12.01,0.87,5.55,4.3,69.2,10.3,-623,1103,-705
2041,9.74,-0.17,5.87,-40.2,60.4,-10.3,-633,1126,-690
2042,11.30,-0.38,5.27,-89.5,57.1,-44.2,-633,1138,-657
2043,13.51,-0.01,5.49,-117.3,32.3,-72.8,-650,1148,-655
2044,13.04,-0.13,4.81,-138.0,-2.7,-75.9,-650,1143,-657
2045,13.36,0.38,4.85,-151.8,-35.3,-62.0,-670,1133,-682
2046,11.86,0.41,4.74,-161.1,-62.5,-38.2,-695,1081,-712
2047,10.84,0.48,4.06,-162.8,-69.1,-24.3,-710,1058,-733
2048,9.90,0.38,3.28,-157.6,-59.5,-27.4,-763,998,-793
2049,9.08,0.23,2.41,-152.8,-41.0,-38.2,-783,957,-808
2050,7.98,0.08,1.66,-148.3,-21.3,-44.5,-776,912,-840
2051,6.97,-0.02,0.95,-141.6,-5.4,-43.6,-796,875,-852
2052,6.43,-0.15,0.46,-129.8,6.1,-36.2,-793,865,-850
2053,5.81,-0.33,0.06,-114.0,10.7,-27.1,-806,840,-877
2054,5.65,-0.26,0.01,-99.1,8.4,-18.9,-821,825,-882
2055,5.84,-0.17,0.28,-87.4,2.7,-10.5,-833,812,-882
2056,5.95,0.07,0.37,-77.6,-0.8,-7.2,-846,802,-887
2057,6.47,0.09,0.46,-67.3,-6.5,-10.9,-838,790,-901
2058,8.78,0.39,0.51,-42.8,-13.3,-26.1,-846,755,-913
2059,9.70,0.59,0.33,-29.9,-9.3,-33.6,-841,760,-911
2060,10.39,0.96,0.25,-14.0,-0.5,-32.2,-841,737,-928
2061,10.78,1.14,0.17,9.3,7.7,-25.5,-828,742,-926
2062,11.17,1.29,-0.15,41.0,13.8,-21.2,-801,747,-933
2063,11.68,1.44,-0.68,79.9,17.0,-22.9,-798,762,-936
2064,12.20,1.76,-0.93,117.5,19.4,-21.6,-773,800,-911
2065,12.99,2.36,0.61,137.8,12.3,-10.6,-747,810,-908
2066,13.58,2.48,1.58,143.0,0.5,-0.5,-745,845,-898
2067,13.48,2.05,1.73,143.3,-4.0,-10.7,-695,882,-877
2068,12.88,1.44,1.37,141.6,-0.7,-22.2,-670,897,-890
2069,12.77,1.33,0.07,141.8,-3.2,-11.3,-650,917,-880
2070,13.76,1.90,-0.50,142.5,-3.0,17.4,-613,932,-875
2071,13.82,2.20,0.25,148.2,-6.4,47.1,-601,945,-870
2072,13.41,2.01,0.64,155.8,-9.8,66.5,-588,955,-857
2073,12.57,1.95,1.09,159.4,-7.8,74.7,-588,971,-847
2074,11.40,1.45,1.04,158.3,4.4,72.0,-588,978,-827
2075,9.70,0.73,0.98,152.4,20.5,60.0,-586,996,-817
2076,8.16,-0.02,1.00,144.4,34.6,46.8,-578,1018,-806
2077,6.72,-0.55,1.08,130.1,40.1,41.2,-561,1061,-791
2078,5.44,-0.62,1.29,108.0,43.5,39.5,-551,1083,-771
2079,5.25,-0.72,1.33,83.4,45.5,37.2,-537,1086,-727
2080,4.99,-0.97,1.45,60.6,34.3,29.6,-522,1118,-710
2081,5.13,-1.21,1.80,37.5,21.7,17.9,-527,1136,-705
2082,5.59,-1.40,2.28,13.3,5.1,5.4,-512,1141,-692
2083,6.13,-1.81,2.43,-12.3,-11.1,1.0,-527,1138,-695
2084,6.59,-2.22,2.32,-39.6,-21.0,3.1,-525,1136,-702
2085,6.90,-2.62,1.89,-63.9,-22.0,7.4,-535,1108,-712
2086,7.56,-3.10,1.34,-79.7,-17.6,6.3,-578,1103,-731
2087,8.45,-3.92,-0.88,-81.9,1.3,-5.5,-606,1093,-715
2088,10.12,-4.32,-2.02,-55.3,22.1,-18.2,-616,1093,-710
2089,12.12,-4.58,-2.45,-12.9,51.8,-20.8,-608,1101,-710
2090,12.64,-4.84,-1.97,26.4,57.1,7.5,-611,1133,-687
2091,12.24,-4.79,-1.17,47.0,43.9,48.1,-613,1141,-655
2092,12.39,-3.21,0.87,56.4,45.3,64.7,-618,1173,-633
2093,12.92,0.94,5.82,33.2,59.0,37.3,-608,1196,-583
2094,10.67,-0.07,7.28,-11.3,48.9,11.6,-623,1211,-586
2095,11.37,-0.08,5.87,-68.7,41.1,-22.3,-638,1213,-550
2096,14.03,0.28,5.21,-105.4,24.4,-49.7,-650,1201,-552
2097,12.89,-0.08,4.66,-134.6,-3.6,-61.9,-670,1203,-550
2098,13.26,0.54,4.94,-154.8,-24.7,-67.4,-692,1188,-571
2099,11.77,0.58,4.88,-165.6,-49.5,-54.0,-717,1166,-593
2100,10.81,0.47,4.34,-167.3,-60.5,-41.4,-745,1113,-638
2101,9.79,0.28,3.58,-163.4,-59.5,-41.1,-781,1081,-655
2102,8.78,0.07,2.59,-160.4,-47.7,-48.3,-806,1021,-700
2103,7.89,0.06,2.01,-157.4,-32.6,-50.3,-808,973,-717
2104,7.05,-0.02,1.46,-153.2,-16.8,-48.7,-828,945,-753
2105,6.45,-0.06,0.89,-145.4,-2.9,-46.0,-833,917,-756
2106,6.15,-0.17,0.59,-134.6,9.9,-38.9,-853,885,-786
2107,6.08,-0.05,0.44,-104.7,27.6,-29.3,-875,842,-793
2108,6.38,0.17,0.46,-91.8,23.4,-29.6,-895,840,-803
2109,7.02,0.44,0.50,-80.9,10.5,-26.8,-887,817,-808
2110,7.91,0.81,0.48,-71.1,-3.9,-20.8,-897,795,-803
2111,8.53,1.17,0.41,-59.0,-10.8,-15.3,-900,782,-812
2112,8.91,1.38,0.24,-39.2,-8.6,-11.2,-907,777,-815
2113,9.45,1.62,0.09,-12.0,-2.2,-13.3,-897,775,-832
2114,10.15,1.85,0.04,21.3,4.9,-20.2,-902,772,-832
2115,10.66,1.89,-0.12,58.5,12.7,-24.9,-895,775,-817
2116,11.12,1.83,-0.34,98.1,22.2,-29.1,-870,805,-827
2117,11.90,1.77,-0.16,132.9,27.2,-27.6,-851,840,-803
2118,12.88,1.97,1.06,149.2,19.1,-12.3,-801,872,-791
2119,13.52,2.12,2.25,149.1,1.7,3.4,-783,907,-776
2120,13.13,1.38,2.54,145.6,-10.9,0.3,-750,925,-768
2121,12.61,0.61,2.11,142.1,-9.1,-7.5,-722,942,-768
2122,12.84,0.13,0.32,142.0,-4.4,2.1,-695,968,-763
2123,14.39,0.83,-0.16,138.8,-4.6,28.3,-652,983,-756
2124,14.55,1.13,0.59,134.5,-9.5,53.9,-647,998,-751
2125,13.95,1.17,1.38,132.8,-11.1,63.1,-636,1006,-733
2126,13.14,1.38,1.71,128.5,-7.6,60.6,-638,1006,-731
2127,12.07,1.52,1.71,115.6,5.5,55.7,-636,1006,-717
2128,10.10,0.91,1.50,102.9,17.5,52.2,-636,1031,-705
2129,8.15,0.19,0.91,91.9,24.4,50.5,-613,1046,-687
2130,6.69,-0.21,0.84,83.9,27.4,49.8,-618,1061,-680
2131,5.84,-0.21,1.26,74.4,25.4,49.4,-621,1063,-652
2132,5.07,-0.29,1.19,61.3,27.2,44.2,-616,1088,-643
2133,4.80,-0.48,1.03,44.6,29.3,31.1,-611,1091,-626
2134,4.89,-0.72,1.28,27.1,28.1,16.9,-596,1096,-618
2135,5.13,-0.77,1.62,7.9,20.6,6.4,-606,1123,-601
2136,5.60,-1.11,1.69,-11.4,6.9,-0.4,-613,1126,-591
2137,6.07,-1.51,1.56,-30.3,-8.7,-6.2,-633,1123,-591
2138,6.91,-2.05,1.31,-49.8,-19.3,-7.3,-631,1111,-606
2139,7.57,-2.44,0.72,-65.3,-20.7,-5.9,-636,1108,-611
2140,8.66,-3.00,-0.41,-70.7,-6.3,-7.3,-647,1081,-641
2141,10.15,-3.12,-0.03,-55.4,10.6,-13.1,-665,1076,-631
2142,11.35,-3.59,-0.59,-37.3,45.4,-18.0,-675,1081,-621
2143,12.48,-3.92,-0.50,-11.7,69.4,-2.8,-680,1091,-603
2144,11.94,-4.28,-0.61,10.5,65.2,30.7,-675,1103,-583
2145,11.23,-3.31,0.44,26.2,47.8,52.5,-690,1123,-542
2146,12.10,-1.63,1.97,40.3,51.8,46.0,-687,1148,-517
2147,12.60,1.62,6.03,18.2,67.8,10.8,-687,1166,-478
2148,10.52,0.50,6.82,-32.0,61.7,-2.0,-707,1191,-463
2149,12.27,0.24,5.23,-85.9,63.3,-33.1,-705,1201,-448
2150,13.30,-0.48,5.15,-103.4,29.9,-49.9,-730,1193,-446
2151,12.68,-0.04,4.36,-116.9,-8.6,-57.4,-747,1191,-441
2152,13.12,0.84,5.12,-125.1,-35.2,-54.9,-768,1148,-463
2153,11.54,0.78,5.24,-131.1,-53.8,-35.9,-793,1126,-510
2154,10.46,0.66,4.72,-130.8,-54.9,-27.4,-818,1096,-527
2155,9.59,0.48,3.90,-126.0,-46.5,-35.6,-826,1063,-576
2156,7.57,0.20,2.29,-126.3,-24.0,-54.7,-867,1001,-613
2157,6.94,0.07,1.64,-126.9,-18.3,-48.8,-875,960,-650
2158,6.42,-0.10,1.04,-123.1,-11.9,-35.5,-887,940,-667
2159,6.07,-0.11,0.51,-111.2,-3.0,-24.6,-892,925,-660
2160,6.05,-0.09,0.50,-94.4,4.7,-23.7,-902,897,-690
2161,6.21,-0.03,0.60,-80.1,10.3,-27.6,-907,870,-697
2162,6.71,0.23,0.79,-70.0,10.7,-28.7,-920,880,-697
2163,7.41,0.47,0.92,-61.5,5.4,-26.7,-905,875,-720
2164,8.28,0.85,0.82,-51.5,-0.6,-23.8,-907,857,-712
2165,9.16,1.25,0.62,-35.3,-3.1,-24.3,-907,855,-717
2166,9.64,1.50,0.30,-12.8,4.2,-27.2,-915,852,-746
2167,9.90,1.56,0.27,15.7,18.1,-29.1,-895,845,-733
2168,10.14,1.53,0.41,49.9,29.2,-29.6,-882,875,-741
2169,10.60,1.51,0.33,85.2,32.6,-28.4,-848,900,-731
2170,11.44,1.50,-0.14,119.2,28.3,-26.5,-816,940,-727
2171,12.51,1.57,0.52,141.9,16.2,-15.3,-766,981,-700
2172,13.78,2.07,2.22,143.1,2.8,9.8,-732,1013,-697
2173,14.43,1.62,2.91,143.3,-9.4,20.4,-702,1018,-690
2174,14.07,0.83,2.44,146.4,-14.5,16.5,-675,1043,-690
2175,13.52,0.63,1.68,143.6,-14.9,27.2,-641,1071,-680
2176,13.65,0.95,1.52,127.3,-15.6,52.7,-593,1073,-680
2177,13.80,1.47,2.17,111.6,-9.6,61.5,-586,1063,-675
2178,13.03,1.64,2.55,107.6,-7.3,55.9,-591,1063,-680
2179,12.27,1.75,2.58,106.5,-6.0,53.6,-571,1083,-680
2180,11.27,1.63,2.02,101.7,-2.0,57.9,-556,1103,-672
2181,10.07,1.19,1.28,97.5,8.3,60.0,-543,1081,-667
2182,8.79,0.62,0.83,96.4,21.6,57.2,-543,1093,-657
2183,7.14,-0.14,0.57,95.0,30.3,56.2,-546,1123,-628
2184,5.96,-0.26,0.69,86.2,32.6,56.3,-530,1128,-633
2185,5.16,-0.41,1.04,73.9,30.5,53.7,-517,1133,-611
2186,4.79,-0.65,1.37,58.9,26.9,48.7,-527,1141,-591
2187,4.83,-0.57,1.53,43.8,21.0,38.2,-515,1153,-586
2188,4.95,-0.53,1.58,30.8,14.9,27.7,-495,1158,-581
2189,4.97,-0.71,1.55,17.8,10.8,17.9,-510,1161,-583
2190,5.48,-1.15,1.71,4.1,3.8,6.5,-517,1163,-578
2191,6.13,-1.89,1.60,-11.6,-6.0,-6.4,-530,1156,-596
2192,7.14,-2.54,1.46,-26.9,-16.8,-13.5,-497,1168,-588
2193,8.19,-2.99,1.06,-41.0,-17.0,-17.4,-517,1158,-603
2194,9.47,-2.99,0.92,-45.4,-2.1,-21.0,-512,1141,-608
2195,10.46,-3.29,1.05,-39.8,27.1,-22.2,-520,1136,-611
2196,12.00,-3.81,0.21,-22.9,64.3,-20.6,-515,1151,-601
2197,12.53,-4.44,-0.21,6.8,70.7,2.1,-502,1161,-591
2198,11.60,-4.64,-0.25,32.5,50.2,36.4,-507,1173,-562
2199,11.62,-3.31,1.17,51.3,43.4,57.3,-510,1206,-550
2200,12.74,-0.72,3.81,49.7,69.7,30.1,-515,1213,-515
2201,11.92,0.95,7.38,4.0,68.6,6.7,-495,1233,-483
2202,10.69,-0.60,7.37,-52.6,48.4,-8.1,-535,1233,-476
2203,13.21,-0.03,6.37,-92.8,37.0,-46.5,-525,1251,-458
2204,13.18,-0.26,6.08,-110.8,3.4,-58.0,-551,1241,-451
2205,12.21,0.35,5.24,-128.4,-52.2,-38.4,-586,1218,-487
2206,10.78,0.34,4.70,-128.8,-69.0,-29.1,-623,1171,-537
2207,10.07,0.23,4.26,-125.5,-71.8,-31.6,-643,1141,-573
2208,9.24,0.03,3.53,-127.2,-63.7,-34.3,-667,1116,-621
2209,8.26,-0.14,2.74,-134.6,-52.9,-34.9,-690,1073,-641
2210,7.36,-0.24,1.95,-142.0,-42.1,-31.7,-710,1033,-685
2211,6.56,-0.30,1.18,-143.6,-30.9,-27.0,-737,983,-705
2212,6.20,-0.27,0.64,-138.0,-24.1,-24.9,-742,960,-731
2213,6.22,-0.23,0.41,-129.7,-20.6,-24.5,-763,937,-738
2214,6.36,-0.10,0.29,-121.9,-16.5,-20.4,-773,917,-756
2215,6.51,-0.08,0.54,-115.8,-12.2,-10.8,-803,882,-778
2216,6.76,-0.06,0.78,-110.1,-13.7,-3.6,-801,860,-791
2217,7.07,0.30,0.67,-103.8,-16.7,-1.8,-828,832,-808
2218,7.71,0.46,0.17,-95.8,-16.3,-3.1,-828,810,-820
2219,8.87,0.29,-0.21,-80.9,-12.0,-2.7,-867,790,-827
2220,9.52,0.02,-0.70,-54.8,-7.8,-1.8,-861,762,-840
2221,10.43,-0.10,-0.62,-20.8,-5.3,-0.3,-853,755,-842
2222,10.94,-0.02,-0.70,14.5,-6.7,2.5,-882,757,-845
2223,11.22,0.12,-0.98,48.8,-5.5,0.7,-870,752,-845
2224,11.57,0.25,-1.57,81.1,-2.9,-4.3,-836,770,-850
2225,12.27,0.48,-1.48,102.7,-5.3,-5.4,-828,782,-837
2226,13.23,0.47,0.20,106.1,-20.5,2.9,-816,790,-842
2227,14.02,0.25,2.18,99.8,-44.5,14.4,-798,790,-855
2228,13.62,-0.29,2.67,96.8,-61.3,14.0,-786,812,-847
2229,12.85,-0.82,2.43,97.4,-64.0,3.9,-778,790,-862
2230,12.12,-0.92,1.82,99.8,-54.5,-1.7,-766,787,-882
2231,12.09,-0.67,0.85,99.4,-41.9,6.5,-756,777,-887
2232,12.71,0.09,0.33,101.1,-29.8,24.3,-730,790,-896
2233,12.87,0.48,-0.28,116.5,-23.5,32.9,-737,777,-890
2234,12.77,0.71,-1.22,140.1,-13.8,24.9,-722,795,-898
2235,11.97,0.72,-1.87,159.5,-4.9,18.6,-720,812,-882
2236,10.88,0.51,-1.82,170.3,2.8,20.5,-702,822,-870
2237,8.92,0.02,-1.22,174.4,9.2,28.0,-672,850,-867
2238,7.13,-0.54,-0.41,174.6,15.7,30.5,-652,877,-847
2239,5.78,-0.52,0.25,170.8,21.2,26.3,-638,895,-842
2240,4.98,-0.68,0.93,161.2,24.2,18.2,-623,920,-820
2241,4.56,-0.81,1.25,144.2,29.3,10.8,-598,952,-796
2242,4.48,-1.05,1.50,117.6,35.7,3.4,-558,973,-791
2243,5.03,-1.39,2.31,82.9,35.7,-4.3,-532,996,-766
2244,5.61,-1.84,2.92,44.4,23.2,-8.2,-525,1013,-766
2245,6.18,-2.38,2.89,5.9,8.3,-12.4,-517,1016,-758
2246,6.73,-3.29,2.33,-28.5,-3.5,-18.5,-510,1021,-751
2247,7.56,-4.09,1.62,-54.0,-10.4,-21.4,-512,1031,-768
2248,8.75,-5.06,-0.32,-60.6,-2.9,-19.6,-507,1003,-776
2249,10.29,-5.72,-1.29,-38.2,12.8,-15.0,-520,1023,-763
2250,12.36,-6.28,-2.42,3.4,46.8,-17.6,-512,1008,-763
2251,12.60,-6.06,-2.09,45.3,53.9,2.3,-505,1031,-751
2252,11.56,-5.88,-1.61,63.3,38.7,41.8,-492,1058,-738
2253,11.52,-4.66,0.21,68.3,27.2,58.0,-500,1071,-702
2254,12.05,-0.67,5.98,14.8,44.9,11.4,-515,1086,-695
2255,10.54,-1.22,7.66,-40.6,38.4,1.0,-485,1103,-670
2256,11.06,-1.44,5.87,-105.4,40.7,-19.5,-527,1106,-662
2257,12.66,-1.96,4.21,-128.7,25.5,-44.7,-548,1108,-650
2258,13.04,-1.24,3.61,-140.7,9.6,-63.1,-566,1113,-655
2259,13.42,-0.31,4.29,-155.8,-9.5,-58.8,-571,1106,-672
2260,11.36,-0.57,4.54,-169.0,-34.9,-36.8,-596,1071,-692
2261,10.33,-0.73,4.14,-174.0,-52.2,-27.8,-641,1036,-720
2262,9.63,-0.67,3.07,-170.0,-53.8,-29.3,-660,993,-727
2263,9.05,-0.71,2.22,-164.0,-40.2,-31.7,-680,945,-761
2264,8.33,-0.74,1.54,-156.5,-22.6,-31.6,-700,915,-806
2265,7.68,-0.79,1.08,-146.1,-3.5,-29.1,-722,902,-808
2266,7.09,-1.04,0.57,-132.3,18.4,-26.9,-737,875,-822
2267,6.58,-1.01,0.15,-117.0,39.4,-28.7,-732,872,-820
2268,6.31,-0.68,0.33,-102.8,50.9,-29.7,-756,855,-827
2269,6.08,-0.40,0.60,-93.4,48.1,-28.3,-766,862,-808
2270,6.15,-0.15,0.79,-88.9,33.0,-25.1,-761,875,-801
2271,6.34,0.08,0.75,-88.0,14.2,-21.1,-783,855,-812
2272,6.69,0.36,0.57,-84.4,2.5,-17.0,-786,837,-812
2273,7.27,0.45,0.19,-71.5,0.7,-18.8,-788,837,-822
2274,8.37,0.35,-0.02,-46.2,1.9,-26.1,-788,835,-837
2275,9.87,0.36,0.26,-15.1,-1.1,-26.9,-778,827,-847
2276,10.71,0.19,0.31,13.6,-1.5,-21.4,-758,822,-840
2277,11.20,0.08,0.33,43.0,3.1,-18.8,-758,830,-847
2278,11.58,0.16,0.08,76.3,9.6,-19.4,-737,837,-837
2279,12.15,0.32,-0.58,112.4,17.0,-20.5,-722,860,-837
2280,12.57,0.52,-0.95,142.3,18.4,-20.5,-675,890,-832
2281,13.11,0.95,1.16,145.3,2.1,-8.7,-647,910,-842
2282,13.77,1.21,3.54,134.2,-23.0,15.2,-621,927,-827
2283,13.09,0.40,4.03,128.3,-39.3,17.0,-601,930,-820
